subject,run_number,Trialid,condition,choice_number,self_value,other_value,choice,self,other,choice_RT
1201,1,1,3,1,31,3,1,31,3,1203
1201,1,1,3,2,22,10,1,22,10,2211
1201,1,1,3,3,30,25,1,30,25,1451
1201,1,1,3,4,4,12,2,10,10,1863
1201,1,2,1,1,12,3,2,10,10,1534
1201,1,2,1,2,30,25,1,30,25,1471
1201,1,2,1,3,6,22,1,6,22,2035
1201,1,2,1,4,30,10,1,30,10,1781
1201,1,3,4,1,11,6,1,11,6,1614
1201,1,3,4,2,20,30,2,10,10,2059
1201,1,3,4,3,4,16,2,10,10,1939
1201,1,3,4,4,10,26,1,10,26,1854
1201,1,5,2,1,22,6,1,22,6,1462
1201,1,5,2,2,10,26,1,10,26,1437
1201,1,5,2,3,25,30,1,25,30,1305
1201,1,5,2,4,4,12,2,10,10,1274
1201,1,8,4,1,7,11,2,10,10,1356
1201,1,8,4,2,31,3,1,31,3,1077
1201,1,8,4,3,30,20,1,30,20,1487
1201,1,8,4,4,26,14,1,26,14,1361
1201,1,9,3,1,10,30,1,10,30,1413
1201,1,9,3,2,25,30,1,25,30,1210
1201,1,9,3,3,6,22,2,10,10,1461
1201,1,9,3,4,11,8,2,10,10,2025
1201,1,11,1,1,11,6,2,10,10,1114
1201,1,11,1,2,12,18,1,12,18,1140
1201,1,11,1,3,22,10,1,22,10,965
1201,1,11,1,4,4,28,2,10,10,1425
1201,1,13,2,1,30,10,1,30,10,984
1201,1,13,2,2,12,8,1,12,8,2031
1201,1,13,2,3,7,11,2,10,10,1316
1201,1,13,2,4,14,26,1,14,26,1295
1201,1,14,4,1,11,8,1,11,8,1838
1201,1,14,4,2,26,10,1,26,10,1026
1201,1,14,4,3,30,29,1,30,29,1327
1201,1,14,4,4,8,16,2,10,10,1931
1201,1,15,1,1,20,30,1,20,30,1540
1201,1,15,1,2,8,16,2,10,10,1649
1201,1,15,1,3,14,26,1,14,26,1464
1201,1,15,1,4,31,3,1,31,3,1669
1201,1,16,3,1,14,6,1,14,6,914
1201,1,16,3,2,20,30,1,20,30,1420
1201,1,16,3,3,2,18,2,10,10,1977
1201,1,16,3,4,12,22,1,12,22,1803
1201,1,18,2,1,22,6,1,22,6,2056
1201,1,18,2,2,6,22,2,10,10,1454
1201,1,18,2,3,26,10,1,26,10,906
1201,1,18,2,4,30,20,1,30,20,802
1201,1,19,4,1,4,16,2,10,10,1752
1201,1,19,4,2,12,3,1,12,3,1338
1201,1,19,4,3,10,22,1,10,22,1654
1201,1,19,4,4,30,15,1,30,15,981
1201,1,21,1,1,4,12,1,4,12,1210
1201,1,21,1,2,30,29,1,30,29,863
1201,1,21,1,3,14,6,1,14,6,1131
1201,1,21,1,4,25,30,1,25,30,1577
1201,1,22,2,1,4,16,2,10,10,936
1201,1,22,2,2,12,3,1,12,3,1193
1201,1,22,2,3,10,22,1,10,22,1575
1201,1,22,2,4,20,30,1,20,30,1186
1201,1,23,3,1,4,16,2,10,10,1061
1201,1,23,3,2,10,22,2,10,10,1599
1201,1,23,3,3,11,6,1,11,6,1193
1201,1,23,3,4,26,10,1,26,10,1037
1201,1,26,3,1,14,6,1,14,6,893
1201,1,26,3,2,6,22,2,10,10,1133
1201,1,26,3,3,18,12,1,18,12,927
1201,1,26,3,4,2,2,2,10,10,706
1201,1,27,1,1,26,14,1,26,14,1163
1201,1,27,1,2,15,30,1,15,30,1536
1201,1,27,1,3,7,11,2,10,10,1286
1201,1,27,1,4,14,6,1,14,6,947
1201,1,28,2,1,2,2,2,10,10,1079
1201,1,28,2,2,26,14,1,26,14,802
1201,1,28,2,3,4,16,2,10,10,1258
1201,1,28,2,4,16,8,1,16,8,811
1201,1,29,4,1,12,22,1,12,22,1122
1201,1,29,4,2,14,6,1,14,6,831
1201,1,29,4,3,22,12,1,22,12,893
1201,1,29,4,4,4,12,2,10,10,1131
1201,1,32,3,1,30,10,1,30,10,1117
1201,1,32,3,2,12,18,1,12,18,1120
1201,1,32,3,3,17,3,1,17,3,777
1201,1,32,3,4,7,11,2,10,10,1898
1201,1,33,1,1,11,8,1,11,8,936
1201,1,33,1,2,10,18,1,10,18,1033
1201,1,33,1,3,18,12,1,18,12,1289
1201,1,33,1,4,2,18,2,10,10,1239
1201,1,35,4,1,17,3,1,17,3,1080
1201,1,35,4,2,6,22,2,10,10,971
1201,1,35,4,3,10,18,2,10,10,1370
1201,1,35,4,4,18,10,1,18,10,1231
1201,1,36,2,1,18,18,1,18,18,872
1201,1,36,2,2,31,3,1,31,3,832
1201,1,36,2,3,2,18,2,10,10,1678
1201,1,36,2,4,10,18,1,10,18,1081
1201,2,2,3,1,14,26,1,14,26,1608
1201,2,2,3,2,4,12,2,10,10,1010
1201,2,2,3,3,12,8,1,12,8,910
1201,2,2,3,4,18,18,1,18,18,751
1201,2,3,1,1,4,16,2,10,10,1393
1201,2,3,1,2,22,6,1,22,6,1066
1201,2,3,1,3,10,22,1,10,22,1039
1201,2,3,1,4,30,15,1,30,15,812
1201,2,4,4,1,4,12,2,10,10,1475
1201,2,4,4,2,18,12,1,18,12,752
1201,2,4,4,3,30,25,1,30,25,1518
1201,2,4,4,4,22,6,1,22,6,585
1201,2,6,2,1,30,29,1,30,29,895
1201,2,6,2,2,18,10,1,18,10,992
1201,2,6,2,3,4,12,2,10,10,1266
1201,2,6,2,4,14,6,1,14,6,939
1201,2,7,3,1,30,15,1,30,15,1222
1201,2,7,3,2,30,29,1,30,29,666
1201,2,7,3,3,22,6,1,22,6,823
1201,2,7,3,4,1,13,2,10,10,1141
1201,2,9,1,1,4,12,2,10,10,1091
1201,2,9,1,2,30,20,1,30,20,709
1201,2,9,1,3,12,8,1,12,8,892
1201,2,9,1,4,18,10,1,18,10,659
1201,2,10,2,1,29,30,1,29,30,831
1201,2,10,2,2,10,30,1,10,30,1169
1201,2,10,2,3,1,13,2,10,10,1219
1201,2,10,2,4,14,6,1,14,6,791
1201,2,11,4,1,6,22,2,10,10,1121
1201,2,11,4,2,15,30,1,15,30,851
1201,2,11,4,3,16,8,1,16,8,1040
1201,2,11,4,4,2,2,2,10,10,826
1201,2,13,3,1,15,30,1,15,30,1113
1201,2,13,3,2,16,8,1,16,8,831
1201,2,13,3,3,8,16,2,10,10,1069
1201,2,13,3,4,22,12,1,22,12,770
1201,2,15,1,1,4,16,2,10,10,1309
1201,2,15,1,2,29,30,1,29,30,1001
1201,2,15,1,3,11,6,2,10,10,1749
1201,2,15,1,4,10,26,1,10,26,999
1201,2,17,4,1,29,30,1,29,30,806
1201,2,17,4,2,14,26,1,14,26,1373
1201,2,17,4,3,2,18,2,10,10,1183
1201,2,17,4,4,14,6,1,14,6,1025
1201,2,18,2,1,12,18,2,10,10,1946
1201,2,18,2,2,22,12,1,22,12,1338
1201,2,18,2,3,11,6,1,11,6,934
1201,2,18,2,4,6,22,2,10,10,996
1201,2,19,3,1,30,20,1,30,20,1241
1201,2,19,3,2,4,28,1,4,28,1535
1201,2,19,3,3,22,6,1,22,6,700
1201,2,19,3,4,29,30,1,29,30,770
1201,2,20,1,1,16,8,1,16,8,1085
1201,2,20,1,2,22,12,1,22,12,828
1201,2,20,1,3,18,18,1,18,18,964
1201,2,20,1,4,1,13,2,10,10,883
1201,2,22,4,1,12,8,1,12,8,1831
1201,2,22,4,2,1,13,2,10,10,840
1201,2,22,4,3,22,10,1,22,10,2223
1201,2,22,4,4,10,30,2,10,10,1296
1201,2,24,2,1,12,22,1,12,22,903
1201,2,24,2,2,11,8,1,11,8,1239
1201,2,24,2,3,22,10,1,22,10,751
1201,2,24,2,4,7,13,2,10,10,1357
1201,2,25,3,1,4,16,2,10,10,1442
1201,2,25,3,2,12,3,1,12,3,1148
1201,2,25,3,3,10,26,2,10,10,1736
1201,2,25,3,4,26,14,1,26,14,1031
1201,2,26,1,1,6,22,2,10,10,1003
1201,2,26,1,2,26,10,1,26,10,788
1201,2,26,1,3,22,6,1,22,6,990
1201,2,26,1,4,10,30,2,10,10,1616
1201,2,29,2,1,15,30,1,15,30,1439
1201,2,29,2,2,17,3,1,17,3,861
1201,2,29,2,3,4,28,2,10,10,1305
1201,2,29,2,4,18,12,1,18,12,849
1201,2,30,4,1,22,6,1,22,6,959
1201,2,30,4,2,4,28,2,10,10,1377
1201,2,30,4,3,12,18,1,12,18,1375
1201,2,30,4,4,30,10,1,30,10,826
1201,2,31,1,1,2,2,2,10,10,916
1201,2,31,1,2,17,3,2,10,10,769
1201,2,31,1,3,12,22,1,12,22,2380
1201,2,31,1,4,7,13,2,10,10,1534
1201,2,32,3,1,7,13,2,10,10,959
1201,2,32,3,2,10,18,2,10,10,1981
1201,2,32,3,3,18,10,1,18,10,846
1201,2,32,3,4,11,6,1,11,6,1637
1201,2,33,4,1,18,18,1,18,18,1056
1201,2,33,4,2,7,13,2,10,10,1449
1201,2,33,4,3,25,30,1,25,30,866
1201,2,33,4,4,11,6,1,11,6,1189
1201,2,34,2,1,30,15,1,30,15,1297
1201,2,34,2,2,8,16,2,10,10,1895
1201,2,34,2,3,11,6,1,11,6,1103
1201,2,34,2,4,30,25,1,30,25,922
1201,3,1,1,1,30,10,1,30,10,861
1201,3,1,1,2,10,22,2,10,10,1890
1201,3,1,1,3,4,28,2,10,10,996
1201,3,1,1,4,12,3,1,12,3,745
1201,3,3,3,1,30,15,1,30,15,793
1201,3,3,3,2,1,13,2,10,10,887
1201,3,3,3,3,31,3,1,31,3,877
1201,3,3,3,4,10,18,2,10,10,1729
1201,3,5,4,1,4,28,2,10,10,1236
1201,3,5,4,2,12,3,1,12,3,1721
1201,3,5,4,3,18,10,1,18,10,848
1201,3,5,4,4,15,30,1,15,30,781
1201,3,6,2,1,17,3,1,17,3,652
1201,3,6,2,2,8,16,2,10,10,1196
1201,3,6,2,3,10,18,2,10,10,1511
1201,3,6,2,4,18,10,1,18,10,1136
1201,3,8,1,1,18,10,1,18,10,855
1201,3,8,1,2,10,18,2,10,10,1556
1201,3,8,1,3,2,18,2,10,10,1268
1201,3,8,1,4,17,3,1,17,3,759
1201,3,9,4,1,10,22,2,10,10,1512
1201,3,9,4,2,8,16,2,10,10,1027
1201,3,9,4,3,30,10,1,30,10,828
1201,3,9,4,4,12,8,1,12,8,681
1201,3,11,3,1,11,8,1,11,8,1208
1201,3,11,3,2,2,18,2,10,10,2248
1201,3,11,3,3,30,10,1,30,10,661
1201,3,11,3,4,15,30,1,15,30,1544
1201,3,12,2,1,10,22,1,10,22,1388
1201,3,12,2,2,11,8,1,11,8,772
1201,3,12,2,3,18,12,1,18,12,1135
1201,3,12,2,4,7,13,2,10,10,1544
1201,3,14,1,1,11,8,1,11,8,1267
1201,3,14,1,2,22,12,1,22,12,770
1201,3,14,1,3,8,16,2,10,10,1591
1201,3,14,1,4,10,30,1,10,30,1486
1201,3,16,3,1,18,10,1,18,10,1079
1201,3,16,3,2,12,18,1,12,18,1497
1201,3,16,3,3,17,3,1,17,3,718
1201,3,16,3,4,4,28,2,10,10,1609
1201,3,17,4,1,11,8,1,11,8,1350
1201,3,17,4,2,7,13,2,10,10,932
1201,3,17,4,3,22,10,1,22,10,823
1201,3,17,4,4,10,30,2,10,10,1467
1201,3,18,2,1,10,30,2,10,10,1385
1201,3,18,2,2,12,8,1,12,8,962
1201,3,18,2,3,22,12,1,22,12,733
1201,3,18,2,4,4,28,2,10,10,1623
1201,3,20,3,1,12,3,1,12,3,1141
1201,3,20,3,2,18,12,1,18,12,763
1201,3,20,3,3,10,30,1,10,30,2023
1201,3,20,3,4,7,13,2,10,10,1076
1201,3,21,1,1,12,18,1,12,18,987
1201,3,21,1,2,16,8,1,16,8,626
1201,3,21,1,3,30,15,1,30,15,847
1201,3,21,1,4,1,13,2,10,10,1072
1201,3,22,2,1,31,3,1,31,3,973
1201,3,22,2,2,7,11,2,10,10,1028
1201,3,22,2,3,30,15,1,30,15,693
1201,3,22,2,4,15,30,1,15,30,1089
1201,3,24,4,1,12,18,1,12,18,1633
1201,3,24,4,2,2,18,2,10,10,1237
1201,3,24,4,3,18,12,1,18,12,939
1201,3,24,4,4,16,8,1,16,8,944
1201,3,26,3,1,8,16,2,10,10,1253
1201,3,26,3,2,12,8,1,12,8,1140
1201,3,26,3,3,22,12,1,22,12,662
1201,3,26,3,4,12,22,1,12,22,1128
1201,3,27,2,1,30,10,1,30,10,655
1201,3,27,2,2,12,3,1,12,3,1174
1201,3,27,2,3,2,18,2,10,10,1014
1201,3,27,2,4,12,18,1,12,18,1349
1201,3,28,4,1,7,11,2,10,10,1057
1201,3,28,4,2,12,22,1,12,22,994
1201,3,28,4,3,17,3,1,17,3,1283
1201,3,28,4,4,30,15,1,30,15,777
1201,3,29,1,1,22,10,1,22,10,950
1201,3,29,1,2,12,22,1,12,22,1404
1201,3,29,1,3,7,11,2,10,10,1068
1201,3,29,1,4,12,8,1,12,8,1141
1201,3,32,3,1,10,22,1,10,22,1611
1201,3,32,3,2,7,11,2,10,10,1290
1201,3,32,3,3,22,10,1,22,10,674
1201,3,32,3,4,16,8,1,16,8,780
1201,3,33,4,1,1,13,2,10,10,861
1201,3,33,4,2,22,12,1,22,12,762
1201,3,33,4,3,31,3,1,31,3,704
1201,3,33,4,4,10,18,1,10,18,1465
1201,3,34,2,1,12,22,1,12,22,888
1201,3,34,2,2,16,8,1,16,8,937
1201,3,34,2,3,22,10,1,22,10,960
1201,3,34,2,4,1,13,2,10,10,909
1201,3,35,1,1,15,30,1,15,30,1616
1201,3,35,1,2,31,3,1,31,3,1020
1201,3,35,1,3,18,12,1,18,12,757
1201,3,35,1,4,7,13,2,10,10,1692
1202,1,1,4,1,31,3,1,31,3,1472
1202,1,1,4,2,22,10,1,22,10,1410
1202,1,1,4,3,30,25,1,30,25,1051
1202,1,1,4,4,4,12,2,10,10,1073
1202,1,4,2,1,12,3,1,12,3,1260
1202,1,4,2,2,30,25,1,30,25,891
1202,1,4,2,3,6,22,2,10,10,1065
1202,1,4,2,4,30,10,1,30,10,809
1202,1,5,3,1,22,6,1,22,6,1005
1202,1,5,3,2,10,26,1,10,26,836
1202,1,5,3,3,25,30,1,25,30,727
1202,1,5,3,4,4,12,2,10,10,909
1202,1,6,1,1,11,6,2,10,10,898
1202,1,6,1,2,20,30,1,20,30,816
1202,1,6,1,3,4,16,2,10,10,742
1202,1,6,1,4,10,26,1,10,26,806
1202,1,7,4,1,10,30,2,10,10,947
1202,1,7,4,2,25,30,1,25,30,819
1202,1,7,4,3,6,22,2,10,10,802
1202,1,7,4,4,11,8,2,10,10,858
1202,1,11,2,1,11,6,1,11,6,1137
1202,1,11,2,2,12,18,1,12,18,1019
1202,1,11,2,3,22,10,1,22,10,707
1202,1,11,2,4,4,28,2,10,10,954
1202,1,12,3,1,30,10,1,30,10,783
1202,1,12,3,2,12,8,1,12,8,829
1202,1,12,3,3,7,11,2,10,10,902
1202,1,12,3,4,14,26,1,14,26,896
1202,1,13,1,1,7,11,2,10,10,688
1202,1,13,1,2,31,3,2,10,10,1370
1202,1,13,1,3,30,20,1,30,20,859
1202,1,13,1,4,26,14,1,26,14,722
1202,1,14,3,1,22,6,2,10,10,1054
1202,1,14,3,2,6,22,2,10,10,884
1202,1,14,3,3,26,10,1,26,10,810
1202,1,14,3,4,30,20,1,30,20,825
1202,1,15,4,1,14,6,1,14,6,946
1202,1,15,4,2,20,30,1,20,30,747
1202,1,15,4,3,2,18,2,10,10,947
1202,1,15,4,4,12,22,1,12,22,1312
1202,1,17,1,1,11,8,2,10,10,933
1202,1,17,1,2,26,10,1,26,10,776
1202,1,17,1,3,30,29,1,30,29,1149
1202,1,17,1,4,8,16,2,10,10,1014
1202,1,19,3,1,4,16,2,10,10,795
1202,1,19,3,2,12,3,2,10,10,632
1202,1,19,3,3,10,22,1,10,22,983
1202,1,19,3,4,20,30,1,20,30,937
1202,1,20,1,1,4,16,2,10,10,768
1202,1,20,1,2,12,3,1,12,3,750
1202,1,20,1,3,10,22,1,10,22,1109
1202,1,20,1,4,30,15,1,30,15,838
1202,1,21,4,1,4,16,2,10,10,740
1202,1,21,4,2,10,22,1,10,22,895
1202,1,21,4,3,11,6,1,11,6,864
1202,1,21,4,4,26,10,1,26,10,1024
1202,1,22,3,1,2,2,2,10,10,659
1202,1,22,3,2,26,14,1,26,14,716
1202,1,22,3,3,4,16,2,10,10,808
1202,1,22,3,4,16,8,2,10,10,847
1202,1,23,2,1,20,30,1,20,30,959
1202,1,23,2,2,8,16,2,10,10,743
1202,1,23,2,3,14,26,1,14,26,1052
1202,1,23,2,4,31,3,2,10,10,1789
1202,1,25,4,1,14,6,2,10,10,798
1202,1,25,4,2,6,22,2,10,10,931
1202,1,25,4,3,18,12,1,18,12,1051
1202,1,25,4,4,2,2,2,10,10,657
1202,1,27,2,1,4,12,2,10,10,777
1202,1,27,2,2,30,29,1,30,29,768
1202,1,27,2,3,14,6,2,10,10,1199
1202,1,27,2,4,25,30,1,25,30,922
1202,1,28,1,1,12,22,1,12,22,2052
1202,1,28,1,2,14,6,1,14,6,1051
1202,1,28,1,3,22,12,1,22,12,844
1202,1,28,1,4,4,12,2,10,10,1103
1202,1,29,3,1,18,18,1,18,18,935
1202,1,29,3,2,31,3,2,10,10,1198
1202,1,29,3,3,2,18,2,10,10,999
1202,1,29,3,4,10,18,1,10,18,1038
1202,1,32,2,1,26,14,1,26,14,871
1202,1,32,2,2,15,30,1,15,30,1124
1202,1,32,2,3,7,11,2,10,10,908
1202,1,32,2,4,14,6,1,14,6,1471
1202,1,33,4,1,30,10,1,30,10,877
1202,1,33,4,2,12,18,1,12,18,843
1202,1,33,4,3,17,3,2,10,10,853
1202,1,33,4,4,7,11,2,10,10,713
1202,1,34,1,1,17,3,2,10,10,1228
1202,1,34,1,2,6,22,2,10,10,1272
1202,1,34,1,3,10,18,1,10,18,1074
1202,1,34,1,4,18,10,1,18,10,974
1202,1,36,2,1,11,8,2,10,10,1181
1202,1,36,2,2,10,18,1,10,18,1459
1202,1,36,2,3,18,12,1,18,12,1221
1202,1,36,2,4,2,18,2,10,10,918
1202,2,1,2,1,4,16,2,10,10,821
1202,2,1,2,2,22,6,1,22,6,943
1202,2,1,2,3,10,22,1,10,22,900
1202,2,1,2,4,30,15,1,30,15,1214
1202,2,4,1,1,4,12,2,10,10,853
1202,2,4,1,2,18,12,1,18,12,995
1202,2,4,1,3,30,25,1,30,25,842
1202,2,4,1,4,22,6,2,10,10,1331
1202,2,5,3,1,30,29,1,30,29,1311
1202,2,5,3,2,18,10,1,18,10,796
1202,2,5,3,3,4,12,2,10,10,760
1202,2,5,3,4,14,6,2,10,10,938
1202,2,6,4,1,14,26,1,14,26,1174
1202,2,6,4,2,4,12,2,10,10,933
1202,2,6,4,3,12,8,2,10,10,611
1202,2,6,4,4,18,18,1,18,18,914
1202,2,8,2,1,4,12,2,10,10,1263
1202,2,8,2,2,30,20,1,30,20,779
1202,2,8,2,3,12,8,2,10,10,1519
1202,2,8,2,4,18,10,1,18,10,812
1202,2,10,1,1,6,22,2,10,10,1181
1202,2,10,1,2,15,30,1,15,30,974
1202,2,10,1,3,16,8,2,10,10,654
1202,2,10,1,4,2,2,2,10,10,917
1202,2,11,4,1,30,15,1,30,15,769
1202,2,11,4,2,30,29,1,30,29,781
1202,2,11,4,3,22,6,1,22,6,811
1202,2,11,4,4,1,13,2,10,10,740
1202,2,12,3,1,29,30,1,29,30,830
1202,2,12,3,2,10,30,1,10,30,1088
1202,2,12,3,3,1,13,2,10,10,899
1202,2,12,3,4,14,6,2,10,10,803
1202,2,13,4,1,15,30,1,15,30,970
1202,2,13,4,2,16,8,2,10,10,1198
1202,2,13,4,3,8,16,2,10,10,801
1202,2,13,4,4,22,12,1,22,12,793
1202,2,16,2,1,4,16,2,10,10,1289
1202,2,16,2,2,29,30,1,29,30,827
1202,2,16,2,3,11,6,2,10,10,946
1202,2,16,2,4,10,26,1,10,26,1370
1202,2,17,1,1,29,30,1,29,30,925
1202,2,17,1,2,14,26,1,14,26,905
1202,2,17,1,3,2,18,2,10,10,802
1202,2,17,1,4,14,6,2,10,10,827
1202,2,18,3,1,12,18,1,12,18,897
1202,2,18,3,2,22,12,1,22,12,1084
1202,2,18,3,3,11,6,2,10,10,1121
1202,2,18,3,4,6,22,2,10,10,1037
1202,2,19,1,1,12,8,1,12,8,1044
1202,2,19,1,2,1,13,2,10,10,801
1202,2,19,1,3,22,10,1,22,10,996
1202,2,19,1,4,10,30,1,10,30,1213
1202,2,20,4,1,30,20,1,30,20,765
1202,2,20,4,2,4,28,2,10,10,891
1202,2,20,4,3,22,6,2,10,10,1099
1202,2,20,4,4,29,30,1,29,30,780
1202,2,21,1,1,22,6,2,10,10,780
1202,2,21,1,2,4,28,2,10,10,981
1202,2,21,1,3,12,18,1,12,18,1844
1202,2,21,1,4,30,10,1,30,10,1309
1202,2,22,2,1,16,8,1,16,8,1199
1202,2,22,2,2,22,12,1,22,12,1007
1202,2,22,2,3,18,18,1,18,18,716
1202,2,22,2,4,1,13,2,10,10,782
1202,2,25,3,1,12,22,1,12,22,1125
1202,2,25,3,2,11,8,2,10,10,1020
1202,2,25,3,3,22,10,1,22,10,911
1202,2,25,3,4,7,13,2,10,10,1125
1202,2,27,4,1,4,16,2,10,10,743
1202,2,27,4,2,12,3,2,10,10,974
1202,2,27,4,3,10,26,1,10,26,679
1202,2,27,4,4,26,14,1,26,14,1080
1202,2,29,2,1,6,22,2,10,10,704
1202,2,29,2,2,26,10,1,26,10,1012
1202,2,29,2,3,22,6,2,10,10,1532
1202,2,29,2,4,10,30,1,10,30,1592
1202,2,31,3,1,15,30,1,15,30,1021
1202,2,31,3,2,17,3,2,10,10,1305
1202,2,31,3,3,4,28,2,10,10,905
1202,2,31,3,4,18,12,1,18,12,848
1202,2,33,1,1,18,18,1,18,18,976
1202,2,33,1,2,7,13,2,10,10,942
1202,2,33,1,3,25,30,1,25,30,1108
1202,2,33,1,4,11,6,2,10,10,817
1202,2,34,4,1,7,13,2,10,10,668
1202,2,34,4,2,10,18,1,10,18,608
1202,2,34,4,3,18,10,1,18,10,770
1202,2,34,4,4,11,6,2,10,10,1064
1202,2,35,2,1,2,2,2,10,10,711
1202,2,35,2,2,17,3,2,10,10,1043
1202,2,35,2,3,12,22,1,12,22,1081
1202,2,35,2,4,7,13,2,10,10,1167
1202,2,36,3,1,30,15,1,30,15,905
1202,2,36,3,2,8,16,2,10,10,1007
1202,2,36,3,3,11,6,2,10,10,985
1202,2,36,3,4,30,25,1,30,25,776
1202,3,1,1,1,4,28,2,10,10,935
1202,3,1,1,2,12,3,2,10,10,1451
1202,3,1,1,3,18,10,1,18,10,1260
1202,3,1,1,4,15,30,1,15,30,930
1202,3,2,4,1,30,15,1,30,15,779
1202,3,2,4,2,1,13,2,10,10,696
1202,3,2,4,3,31,3,2,10,10,1134
1202,3,2,4,4,10,18,1,10,18,1219
1202,3,4,2,1,30,10,1,30,10,1137
1202,3,4,2,2,10,22,1,10,22,1201
1202,3,4,2,3,4,28,2,10,10,972
1202,3,4,2,4,12,3,2,10,10,959
1202,3,5,3,1,17,3,2,10,10,849
1202,3,5,3,2,8,16,2,10,10,858
1202,3,5,3,3,10,18,1,10,18,927
1202,3,5,3,4,18,10,1,18,10,986
1202,3,7,4,1,11,8,2,10,10,891
1202,3,7,4,2,2,18,2,10,10,846
1202,3,7,4,3,30,10,1,30,10,753
1202,3,7,4,4,15,30,1,15,30,981
1202,3,8,1,1,10,22,1,10,22,987
1202,3,8,1,2,8,16,2,10,10,1034
1202,3,8,1,3,30,10,1,30,10,781
1202,3,8,1,4,12,8,2,10,10,927
1202,3,9,2,1,18,10,1,18,10,944
1202,3,9,2,2,10,18,1,10,18,1323
1202,3,9,2,3,2,18,2,10,10,964
1202,3,9,2,4,17,3,2,10,10,903
1202,3,10,3,1,10,22,2,10,10,728
1202,3,10,3,2,11,8,2,10,10,983
1202,3,10,3,3,18,12,1,18,12,892
1202,3,10,3,4,7,13,2,10,10,856
1202,3,13,3,1,10,30,1,10,30,1474
1202,3,13,3,2,12,8,2,10,10,1005
1202,3,13,3,3,22,12,1,22,12,939
1202,3,13,3,4,4,28,2,10,10,990
1202,3,14,1,1,11,8,2,10,10,726
1202,3,14,1,2,7,13,2,10,10,729
1202,3,14,1,3,22,10,1,22,10,953
1202,3,14,1,4,10,30,1,10,30,1348
1202,3,16,2,1,11,8,2,10,10,1133
1202,3,16,2,2,22,12,1,22,12,1051
1202,3,16,2,3,8,16,2,10,10,979
1202,3,16,2,4,10,30,1,10,30,1126
1202,3,17,4,1,18,10,1,18,10,854
1202,3,17,4,2,12,18,1,12,18,717
1202,3,17,4,3,17,3,1,17,3,651
1202,3,17,4,4,4,28,2,10,10,1142
1202,3,18,1,1,12,18,1,12,18,860
1202,3,18,1,2,2,18,2,10,10,963
1202,3,18,1,3,18,12,1,18,12,979
1202,3,18,1,4,16,8,2,10,10,997
1202,3,19,3,1,31,3,2,10,10,1037
1202,3,19,3,2,7,11,2,10,10,880
1202,3,19,3,3,30,15,1,30,15,992
1202,3,19,3,4,15,30,1,15,30,1005
1202,3,20,2,1,12,18,1,12,18,1648
1202,3,20,2,2,16,8,2,10,10,1268
1202,3,20,2,3,30,15,1,30,15,1105
1202,3,20,2,4,1,13,2,10,10,835
1202,3,23,4,1,12,3,2,10,10,824
1202,3,23,4,2,18,12,1,18,12,826
1202,3,23,4,3,10,30,1,10,30,1329
1202,3,23,4,4,7,13,2,10,10,1048
1202,3,24,2,1,22,10,1,22,10,814
1202,3,24,2,2,12,22,1,12,22,1034
1202,3,24,2,3,7,11,2,10,10,864
1202,3,24,2,4,12,8,2,10,10,1254
1202,3,25,1,1,7,11,2,10,10,847
1202,3,25,1,2,12,22,1,12,22,1136
1202,3,25,1,3,17,3,2,10,10,1629
1202,3,25,1,4,30,15,1,30,15,1566
1202,3,26,3,1,30,10,1,30,10,920
1202,3,26,3,2,12,3,2,10,10,794
1202,3,26,3,3,2,18,2,10,10,804
1202,3,26,3,4,12,18,1,12,18,776
1202,3,27,4,1,8,16,2,10,10,1029
1202,3,27,4,2,12,8,1,12,8,1393
1202,3,27,4,3,22,12,1,22,12,1108
1202,3,27,4,4,12,22,1,12,22,1330
1202,3,30,2,1,15,30,1,15,30,704
1202,3,30,2,2,31,3,2,10,10,1276
1202,3,30,2,3,18,12,1,18,12,1000
1202,3,30,2,4,7,13,2,10,10,782
1202,3,31,3,1,12,22,1,12,22,1154
1202,3,31,3,2,16,8,2,10,10,1285
1202,3,31,3,3,22,10,1,22,10,1008
1202,3,31,3,4,1,13,2,10,10,1503
1202,3,33,4,1,10,22,2,10,10,1251
1202,3,33,4,2,7,11,2,10,10,1218
1202,3,33,4,3,22,10,1,22,10,1317
1202,3,33,4,4,16,8,2,10,10,1297
1202,3,35,1,1,1,13,2,10,10,748
1202,3,35,1,2,22,12,1,22,12,1352
1202,3,35,1,3,31,3,2,10,10,1166
1202,3,35,1,4,10,18,1,10,18,1281
1203,1,2,3,1,12,3,1,12,3,2587
1203,1,2,3,2,30,25,1,30,25,2000
1203,1,2,3,3,6,22,2,10,10,1640
1203,1,2,3,4,30,10,1,30,10,1666
1203,1,3,2,1,11,6,1,11,6,2282
1203,1,3,2,2,20,30,1,20,30,1981
1203,1,3,2,3,4,16,2,10,10,2074
1203,1,3,2,4,10,26,1,10,26,1937
1203,1,4,4,1,22,6,1,22,6,1824
1203,1,4,4,2,10,26,1,10,26,1486
1203,1,4,4,3,25,30,1,25,30,1357
1203,1,4,4,4,4,12,2,10,10,1693
1203,1,6,1,1,31,3,1,31,3,2158
1203,1,6,1,2,22,10,1,22,10,1763
1203,1,6,1,3,30,25,1,30,25,1330
1203,1,6,1,4,4,12,2,10,10,1789
1203,1,8,4,1,30,10,1,30,10,1394
1203,1,8,4,2,12,8,1,12,8,1737
1203,1,8,4,3,7,11,2,10,10,1431
1203,1,8,4,4,14,26,1,14,26,1108
1203,1,9,2,1,7,11,2,10,10,1288
1203,1,9,2,2,31,3,1,31,3,1471
1203,1,9,2,3,30,20,1,30,20,1270
1203,1,9,2,4,26,14,1,26,14,1145
1203,1,10,3,1,11,6,1,11,6,1479
1203,1,10,3,2,12,18,1,12,18,1582
1203,1,10,3,3,22,10,1,22,10,941
1203,1,10,3,4,4,28,1,4,28,1551
1203,1,12,2,1,11,8,2,10,10,1440
1203,1,12,2,2,26,10,1,26,10,950
1203,1,12,2,3,30,29,1,30,29,1465
1203,1,12,2,4,8,16,2,10,10,1857
1203,1,13,4,1,22,6,1,22,6,1139
1203,1,13,4,2,6,22,1,6,22,1758
1203,1,13,4,3,26,10,1,26,10,887
1203,1,13,4,4,30,20,1,30,20,789
1203,1,14,1,1,10,30,2,10,10,1827
1203,1,14,1,2,25,30,1,25,30,2062
1203,1,14,1,3,6,22,1,6,22,1704
1203,1,14,1,4,11,8,2,10,10,1839
1203,1,16,3,1,20,30,1,20,30,1501
1203,1,16,3,2,8,16,1,8,16,2083
1203,1,16,3,3,14,26,1,14,26,1350
1203,1,16,3,4,31,3,1,31,3,1237
1203,1,17,4,1,4,16,1,4,16,2017
1203,1,17,4,2,12,3,1,12,3,1800
1203,1,17,4,3,10,22,1,10,22,1597
1203,1,17,4,4,20,30,1,20,30,986
1203,1,19,2,1,4,16,2,10,10,1950
1203,1,19,2,2,12,3,2,10,10,1675
1203,1,19,2,3,10,22,1,10,22,1137
1203,1,19,2,4,30,15,1,30,15,1233
1203,1,20,1,1,14,6,1,14,6,1959
1203,1,20,1,2,20,30,1,20,30,1193
1203,1,20,1,3,2,18,1,2,18,2151
1203,1,20,1,4,12,22,1,12,22,1275
1203,1,21,3,1,4,12,2,10,10,1225
1203,1,21,3,2,30,29,1,30,29,1066
1203,1,21,3,3,14,6,1,14,6,1348
1203,1,21,3,4,25,30,1,25,30,1143
1203,1,22,4,1,2,2,2,10,10,1395
1203,1,22,4,2,26,14,1,26,14,876
1203,1,22,4,3,4,16,2,10,10,1526
1203,1,22,4,4,16,8,1,16,8,1500
1203,1,25,1,1,4,16,2,10,10,1623
1203,1,25,1,2,10,22,1,10,22,1034
1203,1,25,1,3,11,6,1,11,6,1575
1203,1,25,1,4,26,10,1,26,10,2704
1203,1,26,3,1,26,14,1,26,14,1114
1203,1,26,3,2,15,30,1,15,30,1186
1203,1,26,3,3,7,11,2,10,10,1326
1203,1,26,3,4,14,6,1,14,6,1139
1203,1,27,2,1,12,22,1,12,22,1227
1203,1,27,2,2,14,6,1,14,6,1707
1203,1,27,2,3,22,12,1,22,12,807
1203,1,27,2,4,4,12,2,10,10,1139
1203,1,29,1,1,14,6,2,10,10,2186
1203,1,29,1,2,6,22,2,10,10,1834
1203,1,29,1,3,18,12,1,18,12,1331
1203,1,29,1,4,2,2,2,10,10,914
1203,1,31,4,1,18,18,1,18,18,1282
1203,1,31,4,2,31,3,1,31,3,1448
1203,1,31,4,3,2,18,2,10,10,1326
1203,1,31,4,4,10,18,1,10,18,1071
1203,1,32,3,1,11,8,2,10,10,1569
1203,1,32,3,2,10,18,1,10,18,1100
1203,1,32,3,3,18,12,1,18,12,1125
1203,1,32,3,4,2,18,2,10,10,1183
1203,1,34,2,1,17,3,1,17,3,1499
1203,1,34,2,2,6,22,2,10,10,2643
1203,1,34,2,3,10,18,1,10,18,1246
1203,1,34,2,4,18,10,1,18,10,1371
1203,1,36,1,1,30,10,1,30,10,1696
1203,1,36,1,2,12,18,1,12,18,1142
1203,1,36,1,3,17,3,2,10,10,1586
1203,1,36,1,4,7,11,2,10,10,1636
1203,2,1,4,1,30,29,1,30,29,3050
1203,2,1,4,2,18,10,1,18,10,979
1203,2,1,4,3,4,12,2,10,10,1050
1203,2,1,4,4,14,6,2,10,10,1618
1203,2,5,3,1,4,16,2,10,10,1653
1203,2,5,3,2,22,6,1,22,6,1332
1203,2,5,3,3,10,22,1,10,22,903
1203,2,5,3,4,30,15,1,30,15,1002
1203,2,6,1,1,14,26,1,14,26,1541
1203,2,6,1,2,4,12,2,10,10,1382
1203,2,6,1,3,12,8,2,10,10,1690
1203,2,6,1,4,18,18,1,18,18,1078
1203,2,7,2,1,4,12,2,10,10,1100
1203,2,7,2,2,18,12,1,18,12,1196
1203,2,7,2,3,30,25,1,30,25,1028
1203,2,7,2,4,22,6,1,22,6,1066
1203,2,8,4,1,29,30,1,29,30,1025
1203,2,8,4,2,10,30,1,10,30,1425
1203,2,8,4,3,1,13,2,10,10,1798
1203,2,8,4,4,14,6,1,14,6,1586
1203,2,11,3,1,4,12,2,10,10,1202
1203,2,11,3,2,30,20,1,30,20,1078
1203,2,11,3,3,12,8,2,10,10,1865
1203,2,11,3,4,18,10,1,18,10,966
1203,2,12,1,1,30,15,1,30,15,1092
1203,2,12,1,2,30,29,1,30,29,875
1203,2,12,1,3,22,6,1,22,6,1302
1203,2,12,1,4,1,13,2,10,10,1179
1203,2,13,2,1,6,22,2,10,10,1394
1203,2,13,2,2,15,30,1,15,30,1026
1203,2,13,2,3,16,8,1,16,8,1938
1203,2,13,2,4,2,2,2,10,10,1146
1203,2,14,4,1,12,18,1,12,18,1272
1203,2,14,4,2,22,12,1,22,12,856
1203,2,14,4,3,11,6,2,10,10,1603
1203,2,14,4,4,6,22,2,10,10,1377
1203,2,17,3,1,4,16,2,10,10,1462
1203,2,17,3,2,29,30,1,29,30,814
1203,2,17,3,3,11,6,2,10,10,1158
1203,2,17,3,4,10,26,1,10,26,854
1203,2,18,1,1,15,30,1,15,30,989
1203,2,18,1,2,16,8,1,16,8,1429
1203,2,18,1,3,8,16,2,10,10,1394
1203,2,18,1,4,22,12,1,22,12,682
1203,2,20,2,1,29,30,1,29,30,1161
1203,2,20,2,2,14,26,1,14,26,905
1203,2,20,2,3,2,18,2,10,10,1303
1203,2,20,2,4,14,6,2,10,10,1857
1203,2,21,3,1,16,8,1,16,8,1404
1203,2,21,3,2,22,12,1,22,12,765
1203,2,21,3,3,18,18,1,18,18,1069
1203,2,21,3,4,1,13,2,10,10,1277
1203,2,23,4,1,12,22,1,12,22,1167
1203,2,23,4,2,11,8,2,10,10,1482
1203,2,23,4,3,22,10,1,22,10,681
1203,2,23,4,4,7,13,2,10,10,1205
1203,2,24,1,1,30,20,1,30,20,1252
1203,2,24,1,2,4,28,2,10,10,1411
1203,2,24,1,3,22,6,1,22,6,825
1203,2,24,1,4,29,30,1,29,30,1319
1203,2,25,3,1,6,22,2,10,10,1577
1203,2,25,3,2,26,10,1,26,10,1014
1203,2,25,3,3,22,6,1,22,6,1316
1203,2,25,3,4,10,30,1,10,30,1360
1203,2,26,2,1,12,8,2,10,10,1767
1203,2,26,2,2,1,13,2,10,10,1449
1203,2,26,2,3,22,10,1,22,10,779
1203,2,26,2,4,10,30,1,10,30,1213
1203,2,27,2,1,22,6,1,22,6,1639
1203,2,27,2,2,4,28,2,10,10,1801
1203,2,27,2,3,12,18,1,12,18,1037
1203,2,27,2,4,30,10,1,30,10,899
1203,2,29,4,1,15,30,1,15,30,1005
1203,2,29,4,2,17,3,1,17,3,1244
1203,2,29,4,3,4,28,2,10,10,1447
1203,2,29,4,4,18,12,1,18,12,817
1203,2,30,1,1,4,16,2,10,10,1409
1203,2,30,1,2,12,3,2,10,10,1199
1203,2,30,1,3,10,26,1,10,26,1060
1203,2,30,1,4,26,14,1,26,14,770
1203,2,32,3,1,2,2,2,10,10,1107
1203,2,32,3,2,17,3,1,17,3,807
1203,2,32,3,3,12,22,1,12,22,1043
1203,2,32,3,4,7,13,2,10,10,1592
1203,2,33,2,1,18,18,1,18,18,930
1203,2,33,2,2,7,13,2,10,10,1495
1203,2,33,2,3,25,30,1,25,30,1170
1203,2,33,2,4,11,6,2,10,10,1519
1203,2,34,1,1,7,13,2,10,10,1454
1203,2,34,1,2,10,18,1,10,18,1375
1203,2,34,1,3,18,10,1,18,10,1361
1203,2,34,1,4,11,6,2,10,10,1315
1203,2,35,4,1,30,15,1,30,15,1129
1203,2,35,4,2,8,16,2,10,10,1620
1203,2,35,4,3,11,6,2,10,10,1212
1203,2,35,4,4,30,25,1,30,25,791
1203,3,1,3,1,30,10,1,30,10,1069
1203,3,1,3,2,10,22,1,10,22,1128
1203,3,1,3,3,4,28,2,10,10,1318
1203,3,1,3,4,12,3,2,10,10,1316
1203,3,2,4,1,17,3,1,17,3,1427
1203,3,2,4,2,8,16,2,10,10,1243
1203,3,2,4,3,10,18,1,10,18,1339
1203,3,2,4,4,18,10,1,18,10,843
1203,3,4,2,1,4,28,2,10,10,1333
1203,3,4,2,2,12,3,1,12,3,1270
1203,3,4,2,3,18,10,1,18,10,1247
1203,3,4,2,4,15,30,1,15,30,893
1203,3,5,1,1,30,15,1,30,15,841
1203,3,5,1,2,1,13,2,10,10,949
1203,3,5,1,3,31,3,1,31,3,1462
1203,3,5,1,4,10,18,1,10,18,1349
1203,3,6,3,1,18,10,1,18,10,1251
1203,3,6,3,2,10,18,1,10,18,1197
1203,3,6,3,3,2,18,2,10,10,1677
1203,3,6,3,4,17,3,1,17,3,1412
1203,3,8,4,1,10,22,1,10,22,1395
1203,3,8,4,2,11,8,1,11,8,1558
1203,3,8,4,3,18,12,1,18,12,851
1203,3,8,4,4,7,13,2,10,10,928
1203,3,9,2,1,10,22,1,10,22,951
1203,3,9,2,2,8,16,2,10,10,1367
1203,3,9,2,3,30,10,1,30,10,1203
1203,3,9,2,4,12,8,2,10,10,1584
1203,3,11,3,1,11,8,1,11,8,1837
1203,3,11,3,2,22,12,1,22,12,906
1203,3,11,3,3,8,16,2,10,10,1493
1203,3,11,3,4,10,30,1,10,30,1031
1203,3,13,1,1,11,8,2,10,10,1248
1203,3,13,1,2,2,18,2,10,10,833
1203,3,13,1,3,30,10,1,30,10,727
1203,3,13,1,4,15,30,1,15,30,1166
1203,3,14,2,1,11,8,2,10,10,1084
1203,3,14,2,2,7,13,2,10,10,1274
1203,3,14,2,3,22,10,1,22,10,1495
1203,3,14,2,4,10,30,1,10,30,906
1203,3,15,4,1,10,30,1,10,30,1071
1203,3,15,4,2,12,8,2,10,10,1231
1203,3,15,4,3,22,12,1,22,12,926
1203,3,15,4,4,4,28,2,10,10,1295
1203,3,18,3,1,12,18,1,12,18,1582
1203,3,18,3,2,16,8,1,16,8,1047
1203,3,18,3,3,30,15,1,30,15,785
1203,3,18,3,4,1,13,2,10,10,1261
1203,3,19,1,1,18,10,1,18,10,1283
1203,3,19,1,2,12,18,1,12,18,1082
1203,3,19,1,3,17,3,1,17,3,1541
1203,3,19,1,4,4,28,2,10,10,1597
1203,3,20,2,1,12,18,1,12,18,1810
1203,3,20,2,2,2,18,2,10,10,1469
1203,3,20,2,3,18,12,1,18,12,918
1203,3,20,2,4,16,8,1,16,8,1090
1203,3,21,4,1,31,3,1,31,3,1036
1203,3,21,4,2,7,11,2,10,10,1027
1203,3,21,4,3,30,15,1,30,15,747
1203,3,21,4,4,15,30,1,15,30,1080
1203,3,23,3,1,22,10,1,22,10,965
1203,3,23,3,2,12,22,1,12,22,965
1203,3,23,3,3,7,11,2,10,10,1602
1203,3,23,3,4,12,8,1,12,8,675
1203,3,25,1,1,12,3,2,10,10,1443
1203,3,25,1,2,18,12,1,18,12,790
1203,3,25,1,3,10,30,1,10,30,970
1203,3,25,1,4,7,13,2,10,10,906
1203,3,26,2,1,7,11,2,10,10,1027
1203,3,26,2,2,12,22,1,12,22,749
1203,3,26,2,3,17,3,1,17,3,1257
1203,3,26,2,4,30,15,1,30,15,856
1203,3,29,4,1,30,10,1,30,10,1018
1203,3,29,4,2,12,3,2,10,10,1195
1203,3,29,4,3,2,18,2,10,10,1230
1203,3,29,4,4,12,18,1,12,18,1498
1203,3,30,1,1,8,16,2,10,10,1309
1203,3,30,1,2,12,8,1,12,8,1655
1203,3,30,1,3,22,12,1,22,12,1315
1203,3,30,1,4,12,22,1,12,22,930
1203,3,32,2,1,1,13,2,10,10,1236
1203,3,32,2,2,22,12,1,22,12,772
1203,3,32,2,3,31,3,1,31,3,885
1203,3,32,2,4,10,18,1,10,18,1371
1203,3,33,3,1,15,30,1,15,30,800
1203,3,33,3,2,31,3,1,31,3,806
1203,3,33,3,3,18,12,1,18,12,1002
1203,3,33,3,4,7,13,2,10,10,1077
1203,3,34,1,1,10,22,1,10,22,1378
1203,3,34,1,2,7,11,2,10,10,1321
1203,3,34,1,3,22,10,1,22,10,805
1203,3,34,1,4,16,8,1,16,8,1174
1203,3,35,4,1,12,22,1,12,22,1026
1203,3,35,4,2,16,8,1,16,8,1016
1203,3,35,4,3,22,10,1,22,10,798
1203,3,35,4,4,1,13,2,10,10,947
1205,1,1,4,1,11,6,1,11,6,1365
1205,1,1,4,2,20,30,1,20,30,2079
1205,1,1,4,3,4,16,2,10,10,1415
1205,1,1,4,4,10,26,1,10,26,1895
1205,1,4,2,1,22,6,1,22,6,1841
1205,1,4,2,2,10,26,1,10,26,2361
1205,1,4,2,3,25,30,1,25,30,1559
1205,1,4,2,4,4,12,2,10,10,1670
1205,1,5,3,1,31,3,2,10,10,1667
1205,1,5,3,2,22,10,1,22,10,2513
1205,1,5,3,3,30,25,1,30,25,2324
1205,1,5,3,4,4,12,2,10,10,1994
1205,1,6,1,1,12,3,2,10,10,1982
1205,1,6,1,2,30,25,1,30,25,1885
1205,1,6,1,3,6,22,2,10,10,2547
1205,1,6,1,4,30,10,1,30,10,1979
1205,1,7,4,1,7,11,2,10,10,1183
1205,1,7,4,2,31,3,2,10,10,1879
1205,1,7,4,3,30,20,1,30,20,1477
1205,1,7,4,4,26,14,1,26,14,1590
1205,1,11,2,1,30,10,1,30,10,1555
1205,1,11,2,2,12,8,2,10,10,1350
1205,1,11,2,3,7,11,2,10,10,1252
1205,1,11,2,4,14,26,1,14,26,1860
1205,1,12,3,1,10,30,2,10,10,1568
1205,1,12,3,2,25,30,1,25,30,1943
1205,1,12,3,3,6,22,2,10,10,1048
1205,1,13,1,1,11,6,2,10,10,1475
1205,1,13,1,2,12,18,1,12,18,1364
1205,1,13,1,3,22,10,1,22,10,1612
1205,1,13,1,4,4,28,2,10,10,1666
1205,1,14,3,1,14,6,2,10,10,1398
1205,1,14,3,2,20,30,1,20,30,1299
1205,1,14,3,3,2,18,2,10,10,1528
1205,1,14,3,4,12,22,1,12,22,1295
1205,3,14,1,1,11,8,1,11,8,1153
1205,1,15,4,2,26,10,1,26,10,1881
1205,1,15,4,3,30,29,1,30,29,2072
1205,1,15,4,4,8,16,2,10,10,1534
1205,1,17,1,1,20,30,2,10,10,1507
1205,1,17,1,2,8,16,1,8,16,2013
1205,1,17,1,3,14,26,1,14,26,1362
1205,1,17,1,4,31,3,2,10,10,1587
1205,1,19,3,1,4,16,2,10,10,1648
1205,1,19,3,2,10,22,2,10,10,1389
1205,1,19,3,3,11,6,1,11,6,1516
1205,1,19,3,4,26,10,1,26,10,1447
1205,1,20,1,1,4,12,2,10,10,1693
1205,1,20,1,2,30,29,2,10,10,2179
1205,1,20,1,3,14,6,2,10,10,1907
1205,1,20,1,4,25,30,1,25,30,1644
1205,1,21,4,1,4,16,2,10,10,1969
1205,1,21,4,2,12,3,2,10,10,1772
1205,1,21,4,3,10,22,2,10,10,1437
1205,1,21,4,4,30,15,1,30,15,1526
1205,1,22,3,1,14,6,1,14,6,1034
1205,1,22,3,2,6,22,2,10,10,1698
1205,1,22,3,3,18,12,1,18,12,2326
1205,1,22,3,4,2,2,2,10,10,1028
1205,1,23,2,1,22,6,1,22,6,1446
1205,1,23,2,2,6,22,1,6,22,2133
1205,1,23,2,3,26,10,1,26,10,1824
1205,1,23,2,4,30,20,1,30,20,1161
1205,1,25,4,1,12,22,2,10,10,1739
1205,1,25,4,2,14,6,1,14,6,1631
1205,1,25,4,3,22,12,1,22,12,1215
1205,1,25,4,4,4,12,2,10,10,1533
1205,1,27,2,1,4,16,2,10,10,2045
1205,1,27,2,2,12,3,2,10,10,1691
1205,1,27,2,3,10,22,1,10,22,1699
1205,1,27,2,4,20,30,1,20,30,1351
1205,1,28,1,1,26,14,1,26,14,1776
1205,1,28,1,2,15,30,1,15,30,1510
1205,1,28,1,3,7,11,2,10,10,2608
1205,1,28,1,4,14,6,2,10,10,1603
1205,1,29,3,1,30,10,1,30,10,1388
1205,1,29,3,2,12,18,2,10,10,1666
1205,1,29,3,3,17,3,2,10,10,1612
1205,1,29,3,4,7,11,2,10,10,2133
1205,1,32,2,1,2,2,2,10,10,1132
1205,1,32,2,2,26,14,1,26,14,1664
1205,1,32,2,3,4,16,2,10,10,1839
1205,1,32,2,4,16,8,2,10,10,1778
1205,1,33,4,1,17,3,2,10,10,2120
1205,1,33,4,2,6,22,2,10,10,1422
1205,1,33,4,3,10,18,2,10,10,1617
1205,1,33,4,4,18,10,1,18,10,2011
1205,1,34,1,2,10,18,1,10,18,1644
1205,1,34,1,3,18,12,1,18,12,1790
1205,1,34,1,4,2,18,2,10,10,1050
1205,1,36,2,1,18,18,1,18,18,1184
1205,1,36,2,2,31,3,2,10,10,1214
1205,1,36,2,3,2,18,2,10,10,1446
1205,1,36,2,4,10,18,2,10,10,1655
1205,2,1,2,1,30,29,1,30,29,985
1205,2,1,2,2,18,10,1,18,10,1243
1205,2,1,2,3,4,12,2,10,10,1198
1205,2,1,2,4,14,6,2,10,10,1370
1205,2,4,1,1,4,16,2,10,10,1393
1205,2,4,1,2,22,6,2,10,10,1775
1205,2,4,1,3,10,22,1,10,22,1686
1205,2,4,1,4,30,15,1,30,15,2495
1205,2,5,3,1,14,26,2,10,10,1636
1205,2,5,3,2,4,12,2,10,10,1417
1205,2,5,3,3,12,8,1,12,8,1396
1205,2,5,3,4,18,18,1,18,18,1014
1205,2,6,4,1,4,12,2,10,10,1250
1205,2,6,4,2,18,12,1,18,12,1456
1205,2,6,4,3,30,25,1,30,25,1062
1205,2,6,4,4,22,6,1,22,6,1245
1205,2,8,2,1,29,30,1,29,30,722
1205,2,8,2,2,10,30,1,10,30,1222
1205,2,8,2,3,1,13,2,10,10,1226
1205,2,8,2,4,14,6,2,10,10,1631
1205,2,10,1,1,4,12,2,10,10,1856
1205,2,10,1,2,30,20,1,30,20,1650
1205,2,10,1,3,12,8,2,10,10,1401
1205,2,10,1,4,18,10,1,18,10,2184
1205,2,11,4,1,6,22,2,10,10,1827
1205,2,11,4,2,15,30,2,10,10,2479
1205,2,11,4,3,16,8,1,16,8,1677
1205,2,11,4,4,2,2,2,10,10,1326
1205,2,12,3,1,30,15,1,30,15,1865
1205,2,12,3,2,30,29,1,30,29,1826
1205,2,12,3,3,22,6,1,22,6,1709
1205,2,12,3,4,1,13,2,10,10,1438
1205,2,13,4,1,29,30,1,29,30,1869
1205,2,13,4,2,14,26,1,14,26,2017
1205,2,13,4,3,2,18,2,10,10,1115
1205,2,13,4,4,14,6,1,14,6,1860
1205,2,16,2,1,12,18,2,10,10,2116
1205,2,16,2,2,22,12,1,22,12,1709
1205,2,16,2,3,11,6,2,10,10,2109
1205,2,16,2,4,6,22,2,10,10,2053
1205,2,17,1,1,4,16,2,10,10,2113
1205,2,17,1,2,29,30,1,29,30,1276
1205,2,17,1,3,11,6,2,10,10,1373
1205,2,17,1,4,10,26,1,10,26,1863
1205,2,18,3,1,15,30,1,15,30,1595
1205,2,18,3,2,16,8,1,16,8,1695
1205,2,18,3,3,8,16,2,10,10,1836
1205,2,18,3,4,22,12,1,22,12,1208
1205,2,19,1,1,16,8,2,10,10,2200
1205,2,19,1,2,22,12,1,22,12,1779
1205,2,19,1,3,18,18,1,18,18,999
1205,2,19,1,4,1,13,2,10,10,1040
1205,2,20,4,1,12,8,1,12,8,1800
1205,2,20,4,2,1,13,2,10,10,1782
1205,2,20,4,3,22,10,1,22,10,1134
1205,2,20,4,4,10,30,2,10,10,1471
1205,2,21,1,1,6,22,2,10,10,1487
1205,2,21,1,2,26,10,1,26,10,1889
1205,2,21,1,3,22,6,2,10,10,2641
1205,2,21,1,4,10,30,1,10,30,1610
1205,2,22,2,1,12,22,1,12,22,1379
1205,3,9,2,2,11,8,2,10,10,1591
1205,2,22,2,3,22,10,1,22,10,1761
1205,2,22,2,4,7,13,2,10,10,1540
1205,2,25,3,1,30,20,1,30,20,1819
1205,2,25,3,2,4,28,2,10,10,1370
1205,2,25,3,3,22,6,1,22,6,1548
1205,2,25,3,4,29,30,2,10,10,2130
1205,2,27,4,1,22,6,1,22,6,1004
1205,2,27,4,2,4,28,2,10,10,1378
1205,2,27,4,3,12,18,1,12,18,2252
1205,2,27,4,4,30,10,1,30,10,1333
1205,2,29,2,1,15,30,2,10,10,1533
1205,2,29,2,2,17,3,2,10,10,1681
1205,2,29,2,3,4,28,2,10,10,1088
1205,2,29,2,4,18,12,1,18,12,1118
1205,2,31,3,1,4,16,2,10,10,1665
1205,2,31,3,2,12,3,2,10,10,1501
1205,2,31,3,3,10,26,2,10,10,1988
1205,2,31,3,4,26,14,1,26,14,1092
1205,2,33,1,1,2,2,2,10,10,1172
1205,2,33,1,2,17,3,2,10,10,1690
1205,2,33,1,3,12,22,1,12,22,1576
1205,2,33,1,4,7,13,2,10,10,1301
1205,2,34,4,1,18,18,1,18,18,984
1205,2,34,4,2,7,13,2,10,10,1276
1205,2,34,4,3,25,30,1,25,30,1030
1205,2,34,4,4,11,6,1,11,6,1691
1205,2,35,2,1,30,15,1,30,15,1419
1205,2,35,2,2,8,16,2,10,10,1527
1205,2,35,2,3,11,6,2,10,10,2109
1205,2,35,2,4,30,25,1,30,25,1644
1205,2,36,3,1,7,13,2,10,10,1534
1205,2,36,3,2,10,18,1,10,18,2907
1205,2,36,3,3,18,10,1,18,10,2038
1205,2,36,3,4,11,6,1,11,6,1949
1205,3,1,1,1,30,10,1,30,10,980
1205,3,1,1,2,10,22,1,10,22,1064
1205,3,1,1,3,4,28,2,10,10,1120
1205,3,1,1,4,12,3,2,10,10,1495
1205,3,2,4,1,4,28,2,10,10,698
1205,3,2,4,2,12,3,1,12,3,1429
1205,3,2,4,3,18,10,1,18,10,1155
1205,3,2,4,4,15,30,2,10,10,1545
1205,3,4,2,1,17,3,2,10,10,1862
1205,3,4,2,2,8,16,2,10,10,2062
1205,3,4,2,3,10,18,1,10,18,1513
1205,3,4,2,4,18,10,1,18,10,1780
1205,3,5,3,1,30,15,1,30,15,1372
1205,3,5,3,2,1,13,2,10,10,1623
1205,3,5,3,3,31,3,1,31,3,2164
1205,3,5,3,4,10,18,1,10,18,2886
1205,3,7,4,1,10,22,2,10,10,1207
1205,3,7,4,2,8,16,2,10,10,1395
1205,3,7,4,3,30,10,1,30,10,1270
1205,3,7,4,4,12,8,1,12,8,1163
1205,3,8,1,1,18,10,1,18,10,1689
1205,3,8,1,2,10,18,1,10,18,1376
1205,3,8,1,3,2,18,2,10,10,955
1205,3,8,1,4,17,3,2,10,10,1623
1205,3,9,2,1,10,22,1,10,22,1316
1205,3,9,2,3,18,12,1,18,12,1096
1205,3,9,2,4,7,13,2,10,10,1627
1205,3,10,3,1,11,8,1,11,8,1236
1205,3,10,3,2,2,18,2,10,10,1507
1205,3,10,3,3,30,10,1,30,10,1609
1205,3,10,3,4,15,30,2,10,10,1477
1205,3,13,3,1,18,10,1,18,10,1191
1205,3,13,3,2,12,18,1,12,18,1634
1205,3,13,3,3,17,3,1,17,3,1967
1205,3,13,3,4,4,28,2,10,10,1825
1205,3,14,1,2,22,12,1,22,12,1372
1205,3,14,1,3,8,16,2,10,10,1012
1205,3,14,1,4,10,30,1,10,30,2287
1205,3,16,2,1,10,30,2,10,10,1657
1205,3,16,2,2,12,8,2,10,10,1816
1205,3,16,2,3,22,12,2,10,10,1944
1205,3,16,2,4,4,28,2,10,10,1172
1205,3,17,4,1,11,8,1,11,8,1043
1205,3,17,4,2,7,13,2,10,10,1338
1205,3,17,4,3,22,10,1,22,10,1248
1205,3,17,4,4,10,30,2,10,10,1315
1205,3,18,1,1,12,18,1,12,18,1297
1205,3,18,1,2,16,8,2,10,10,1359
1205,3,18,1,3,30,15,1,30,15,1432
1205,3,18,1,4,1,13,2,10,10,1721
1205,3,19,3,1,12,3,2,10,10,1251
1205,3,19,3,2,18,12,1,18,12,1285
1205,3,19,3,3,10,30,1,10,30,1493
1205,3,19,3,4,7,13,2,10,10,1266
1205,3,20,2,1,31,3,2,10,10,1141
1205,3,20,2,2,7,11,2,10,10,1057
1205,3,20,2,3,30,15,1,30,15,1119
1205,3,20,2,4,15,30,1,15,30,1065
1205,3,23,4,1,12,18,1,12,18,1005
1205,3,23,4,2,2,18,2,10,10,1096
1205,3,23,4,3,18,12,1,18,12,1286
1205,3,23,4,4,16,8,1,16,8,1558
1205,3,24,2,1,30,10,1,30,10,1404
1205,3,24,2,2,12,3,2,10,10,1033
1205,3,24,2,3,2,18,2,10,10,2046
1205,3,24,2,4,12,18,1,12,18,1725
1205,3,25,1,1,22,10,2,10,10,1198
1205,3,25,1,2,12,22,1,12,22,1167
1205,3,25,1,3,7,11,2,10,10,1355
1205,3,25,1,4,12,8,2,10,10,1245
1205,3,26,3,1,8,16,2,10,10,871
1205,3,26,3,2,12,8,1,12,8,1305
1205,3,26,3,3,22,12,1,22,12,1443
1205,3,26,3,4,12,22,1,12,22,1551
1205,3,27,4,1,7,11,2,10,10,932
1205,3,27,4,2,12,22,1,12,22,1679
1205,3,27,4,3,17,3,1,17,3,1714
1205,3,27,4,4,30,15,1,30,15,1303
1205,3,30,2,1,12,22,1,12,22,1695
1205,3,30,2,2,16,8,1,16,8,1299
1205,3,30,2,3,22,10,1,22,10,1246
1205,3,30,2,4,1,13,2,10,10,853
1205,3,31,3,1,10,22,2,10,10,1625
1205,3,31,3,2,7,11,2,10,10,1340
1205,3,31,3,3,22,10,1,22,10,1248
1205,3,31,3,4,16,8,1,16,8,870
1205,3,33,4,1,1,13,2,10,10,802
1205,3,33,4,2,22,12,1,22,12,1554
1205,3,33,4,3,31,3,1,31,3,1709
1205,3,33,4,4,10,18,2,10,10,1665
1205,3,35,1,1,15,30,1,15,30,1213
1205,3,35,1,2,31,3,2,10,10,1353
1205,3,35,1,3,18,12,1,18,12,1751
1205,3,35,1,4,7,13,2,10,10,1162
1207,0,1,3,1,12,3,1,12,3,1954
1207,0,1,3,2,30,25,1,30,25,1634
1207,0,1,3,3,6,22,2,10,10,1441
1207,0,1,3,4,30,10,2,10,10,1286
1207,0,2,1,1,31,3,2,10,10,1566
1207,0,2,1,2,22,10,1,22,10,1887
1207,0,2,1,3,30,25,1,30,25,1491
1207,0,2,1,4,4,12,1,4,12,1789
1207,0,3,4,1,22,6,1,22,6,1504
1207,0,3,4,2,10,26,2,10,10,1668
1207,0,3,4,3,25,30,2,10,10,1596
1207,0,3,4,4,4,12,2,10,10,1366
1207,0,5,2,1,11,6,2,10,10,2046
1207,0,5,2,2,20,30,1,20,30,2084
1207,0,5,2,3,4,16,2,10,10,2287
1207,0,5,2,4,10,26,2,10,10,1504
1207,0,8,4,1,30,10,1,30,10,1136
1207,0,8,4,2,12,8,1,12,8,1249
1207,0,8,4,3,7,11,2,10,10,1172
1207,0,8,4,4,14,26,1,14,26,1325
1207,0,9,3,1,11,6,1,11,6,1488
1207,0,9,3,2,12,18,1,12,18,1479
1207,0,9,3,3,22,10,1,22,10,1137
1207,0,9,3,4,4,28,2,10,10,1477
1207,0,11,1,1,10,30,1,10,30,1822
1207,0,11,1,2,25,30,1,25,30,1465
1207,0,11,1,3,6,22,2,10,10,1585
1207,0,11,1,4,11,8,1,11,8,1861
1207,0,13,2,1,7,11,2,10,10,1740
1207,0,13,2,2,31,3,1,31,3,1219
1207,0,13,2,3,30,20,1,30,20,1185
1207,0,13,2,4,26,14,1,26,14,1260
1207,0,14,4,1,22,6,2,10,10,1300
1207,0,14,4,2,6,22,2,10,10,1686
1207,0,14,4,3,26,10,1,26,10,1516
1207,0,14,4,4,30,20,1,30,20,1279
1207,0,15,1,1,14,6,2,10,10,1593
1207,0,15,1,2,20,30,1,20,30,1805
1207,0,15,1,3,2,18,2,10,10,1957
1207,0,15,1,4,12,22,1,12,22,1683
1207,0,16,3,1,20,30,1,20,30,1310
1207,0,16,3,2,8,16,2,10,10,1690
1207,0,16,3,3,14,26,1,14,26,1143
1207,0,16,3,4,31,3,1,31,3,1263
1207,0,18,2,1,11,8,2,10,10,2067
1207,0,18,2,2,26,10,1,26,10,1417
1207,0,18,2,3,30,29,1,30,29,1525
1207,0,18,2,4,8,16,2,10,10,1715
1207,0,19,4,1,4,16,2,10,10,1154
1207,0,19,4,2,12,3,1,12,3,1508
1207,0,19,4,3,10,22,2,10,10,2247
1207,0,19,4,4,20,30,1,20,30,1854
1207,0,21,1,1,4,16,1,4,16,2339
1207,0,21,1,2,10,22,1,10,22,2399
1207,0,21,1,3,11,6,1,11,6,2540
1207,0,21,1,4,26,10,1,26,10,2099
1207,0,22,2,1,4,16,2,10,10,1474
1207,0,22,2,2,12,3,2,10,10,1714
1207,0,22,2,3,10,22,2,10,10,2527
1207,0,22,2,4,30,15,1,30,15,1530
1207,0,23,3,1,4,12,2,10,10,1605
1207,0,23,3,2,30,29,1,30,29,1022
1207,0,23,3,3,14,6,1,14,6,1201
1207,0,23,3,4,25,30,1,25,30,869
1207,0,26,3,1,26,14,1,26,14,1564
1207,0,26,3,2,15,30,1,15,30,868
1207,0,26,3,3,7,11,2,10,10,1086
1207,0,26,3,4,14,6,1,14,6,946
1207,0,27,1,1,14,6,2,10,10,1402
1207,0,27,1,2,6,22,2,10,10,1735
1207,0,27,1,3,18,12,1,18,12,1844
1207,0,27,1,4,2,2,2,10,10,1026
1207,0,28,2,1,12,22,1,12,22,1566
1207,0,28,2,2,14,6,2,10,10,1585
1207,0,28,2,3,22,12,1,22,12,2169
1207,0,28,2,4,4,12,2,10,10,1617
1207,0,29,4,1,2,2,2,10,10,1056
1207,0,29,4,2,26,14,1,26,14,989
1207,0,29,4,3,4,16,2,10,10,1116
1207,0,29,4,4,16,8,1,16,8,1761
1207,0,32,3,1,11,8,1,11,8,1947
1207,0,32,3,2,10,18,2,10,10,1847
1207,0,32,3,3,18,12,1,18,12,1238
1207,0,32,3,4,2,18,2,10,10,1767
1207,0,33,1,1,30,10,1,30,10,1284
1207,0,33,1,2,12,18,1,12,18,1580
1207,0,33,1,3,17,3,2,10,10,1381
1207,0,33,1,4,7,11,1,7,11,2161
1207,0,35,4,1,18,18,1,18,18,1274
1207,0,35,4,2,31,3,1,31,3,1518
1207,0,35,4,3,2,18,2,10,10,1213
1207,0,35,4,4,10,18,2,10,10,1369
1207,0,36,2,1,17,3,2,10,10,1491
1207,0,36,2,2,6,22,2,10,10,2434
1207,0,36,2,3,10,18,2,10,10,1521
1207,0,36,2,4,18,10,2,10,10,1836
1207,1,1,3,1,12,3,2,10,10,1399
1207,1,1,3,2,30,25,1,30,25,831
1207,1,1,3,3,6,22,2,10,10,998
1207,1,1,3,4,30,10,1,30,10,731
1207,1,2,1,1,31,3,1,31,3,873
1207,1,2,1,2,22,10,1,22,10,1242
1207,1,2,1,3,30,25,1,30,25,926
1207,1,2,1,4,4,12,1,4,12,1776
1207,1,3,4,1,22,6,1,22,6,875
1207,1,3,4,2,10,26,2,10,10,1112
1207,1,3,4,3,25,30,1,25,30,832
1207,1,3,4,4,4,12,2,10,10,1001
1207,1,5,2,1,11,6,2,10,10,1313
1207,1,5,2,2,20,30,1,20,30,1111
1207,1,5,2,3,4,16,2,10,10,1260
1207,1,5,2,4,10,26,2,10,10,1405
1207,1,8,4,1,30,10,1,30,10,934
1207,1,8,4,2,12,8,1,12,8,1431
1207,1,8,4,3,7,11,2,10,10,937
1207,1,8,4,4,14,26,1,14,26,994
1207,1,9,3,1,11,6,1,11,6,1261
1207,1,9,3,2,12,18,1,12,18,1533
1207,1,9,3,3,22,10,1,22,10,855
1207,1,9,3,4,4,28,2,10,10,993
1207,1,11,1,1,10,30,2,10,10,1443
1207,1,11,1,2,25,30,1,25,30,950
1207,1,11,1,3,6,22,2,10,10,1038
1207,1,11,1,4,11,8,2,10,10,1498
1207,1,13,2,1,7,11,2,10,10,2080
1207,1,13,2,2,31,3,1,31,3,1438
1207,1,13,2,3,30,20,1,30,20,1004
1207,1,13,2,4,26,14,1,26,14,863
1207,1,14,4,1,22,6,1,22,6,719
1207,1,14,4,2,6,22,2,10,10,1435
1207,1,14,4,3,26,10,1,26,10,862
1207,1,14,4,4,30,20,1,30,20,754
1207,1,15,1,1,14,6,1,14,6,1284
1207,1,15,1,2,20,30,1,20,30,1041
1207,1,15,1,3,2,18,2,10,10,1024
1207,1,15,1,4,12,22,1,12,22,1190
1207,1,16,3,1,20,30,1,20,30,1386
1207,1,16,3,2,8,16,2,10,10,2204
1207,1,16,3,3,14,26,1,14,26,1105
1207,1,16,3,4,31,3,1,31,3,1594
1207,1,18,2,1,11,8,2,10,10,1383
1207,1,18,2,2,26,10,1,26,10,861
1207,1,18,2,3,30,29,1,30,29,896
1207,1,18,2,4,8,16,2,10,10,1207
1207,1,19,4,1,4,16,2,10,10,1893
1207,1,19,4,2,12,3,2,10,10,1264
1207,1,19,4,3,10,22,2,10,10,1083
1207,1,19,4,4,20,30,1,20,30,801
1207,1,21,1,1,4,16,2,10,10,1399
1207,1,21,1,2,10,22,2,10,10,1306
1207,1,21,1,3,11,6,2,10,10,1255
1207,1,21,1,4,26,10,1,26,10,1301
1207,1,22,2,1,4,16,2,10,10,1164
1207,1,22,2,2,12,3,2,10,10,1451
1207,1,22,2,3,10,22,2,10,10,2049
1207,1,22,2,4,30,15,1,30,15,1299
1207,1,23,3,1,4,12,2,10,10,1158
1207,1,23,3,2,30,29,1,30,29,1064
1207,1,23,3,3,14,6,1,14,6,1346
1207,1,23,3,4,25,30,1,25,30,1005
1207,1,26,3,1,26,14,1,26,14,1285
1207,1,26,3,2,15,30,1,15,30,972
1207,1,26,3,3,7,11,2,10,10,1039
1207,1,26,3,4,14,6,2,10,10,1154
1207,1,27,1,1,14,6,2,10,10,1139
1207,1,27,1,2,6,22,1,6,22,1993
1207,1,27,1,3,18,12,1,18,12,1054
1207,1,27,1,4,2,2,2,10,10,844
1207,1,28,2,1,12,22,2,10,10,1327
1207,1,28,2,2,14,6,1,14,6,963
1207,1,28,2,3,22,12,1,22,12,794
1207,1,28,2,4,4,12,2,10,10,1027
1207,1,29,4,1,2,2,2,10,10,850
1207,1,29,4,2,26,14,1,26,14,1183
1207,1,29,4,3,4,16,2,10,10,997
1207,1,29,4,4,16,8,1,16,8,1818
1207,1,32,3,1,11,8,2,10,10,1259
1207,1,32,3,2,10,18,2,10,10,1336
1207,1,32,3,3,18,12,1,18,12,873
1207,1,32,3,4,2,18,2,10,10,961
1207,1,33,1,1,30,10,1,30,10,895
1207,1,33,1,2,12,18,1,12,18,1511
1207,1,33,1,3,17,3,2,10,10,1592
1207,1,33,1,4,7,11,2,10,10,1015
1207,1,35,4,1,18,18,1,18,18,1694
1207,1,35,4,2,31,3,1,31,3,1018
1207,1,35,4,3,2,18,2,10,10,1024
1207,1,35,4,4,10,18,2,10,10,1277
1207,1,36,2,1,17,3,2,10,10,1358
1207,1,36,2,2,6,22,2,10,10,1070
1207,1,36,2,3,10,18,1,10,18,1174
1207,1,36,2,4,18,10,1,18,10,1512
1207,2,2,3,1,4,16,2,10,10,1375
1207,2,2,3,2,22,6,1,22,6,1210
1207,2,2,3,3,10,22,2,10,10,1228
1207,2,2,3,4,30,15,1,30,15,1262
1207,2,3,1,1,14,26,1,14,26,1599
1207,2,3,1,2,4,12,2,10,10,1727
1207,2,3,1,3,12,8,2,10,10,1557
1207,2,3,1,4,18,18,1,18,18,1315
1207,2,4,4,1,30,29,1,30,29,1377
1207,2,4,4,2,18,10,1,18,10,1270
1207,2,4,4,3,4,12,2,10,10,1331
1207,2,4,4,4,14,6,1,14,6,1751
1207,2,6,2,1,4,12,2,10,10,1413
1207,2,6,2,2,18,12,1,18,12,1566
1207,2,6,2,3,30,25,1,30,25,1238
1207,2,6,2,4,22,6,2,10,10,1575
1207,2,7,3,1,4,12,2,10,10,1434
1207,2,7,3,2,30,20,1,30,20,1143
1207,2,7,3,3,12,8,2,10,10,1380
1207,2,7,3,4,18,10,1,18,10,1425
1207,2,9,1,1,30,15,1,30,15,1344
1207,2,9,1,2,30,29,1,30,29,1281
1207,2,9,1,3,22,6,2,10,10,1384
1207,2,9,1,4,1,13,1,1,13,1343
1207,2,10,2,1,6,22,2,10,10,1434
1207,2,10,2,2,15,30,1,15,30,1219
1207,2,10,2,3,16,8,2,10,10,2061
1207,2,10,2,4,2,2,2,10,10,1256
1207,2,11,4,1,29,30,1,29,30,1411
1207,2,11,4,2,10,30,2,10,10,1325
1207,2,11,4,3,1,13,2,10,10,1579
1207,2,11,4,4,14,6,1,14,6,1276
1207,2,13,3,1,4,16,2,10,10,1251
1207,2,13,3,2,29,30,1,29,30,953
1207,2,13,3,3,11,6,1,11,6,1248
1207,2,13,3,4,10,26,2,10,10,1525
1207,2,15,1,1,15,30,1,15,30,1505
1207,2,15,1,2,16,8,2,10,10,1484
1207,2,15,1,3,8,16,1,8,16,1529
1207,2,15,1,4,22,12,1,22,12,1635
1207,2,17,4,1,12,18,1,12,18,1738
1207,2,17,4,2,22,12,1,22,12,1105
1207,2,17,4,3,11,6,1,11,6,1227
1207,2,17,4,4,6,22,2,10,10,1461
1207,2,18,2,1,29,30,1,29,30,1012
1207,2,18,2,2,14,26,2,10,10,1453
1207,2,18,2,3,2,18,2,10,10,976
1207,2,18,2,4,14,6,1,14,6,1319
1207,2,19,3,1,16,8,2,10,10,1340
1207,2,19,3,2,22,12,1,22,12,1044
1207,2,19,3,3,18,18,1,18,18,1033
1207,2,19,3,4,1,13,2,10,10,1055
1207,2,20,1,1,30,20,1,30,20,1009
1207,2,20,1,2,4,28,1,4,28,1143
1207,2,20,1,3,22,6,1,22,6,1569
1207,2,20,1,4,29,30,1,29,30,905
1207,2,22,4,1,12,22,2,10,10,1477
1207,2,22,4,2,11,8,1,11,8,958
1207,2,22,4,3,22,10,1,22,10,998
1207,2,22,4,4,7,13,2,10,10,1766
1207,2,24,2,1,12,8,1,12,8,1565
1207,2,24,2,2,1,13,2,10,10,955
1207,2,24,2,3,22,10,1,22,10,1068
1207,2,24,2,4,10,30,2,10,10,1242
1207,2,25,3,1,6,22,2,10,10,1159
1207,2,25,3,2,26,10,1,26,10,1074
1207,2,25,3,3,22,6,1,22,6,1318
1207,2,25,3,4,10,30,2,10,10,1436
1207,2,26,1,1,4,16,1,4,16,1769
1207,2,26,1,2,12,3,2,10,10,1170
1207,2,26,1,3,10,26,1,10,26,1116
1207,2,26,1,4,26,14,1,26,14,1070
1207,2,29,2,1,22,6,2,10,10,1606
1207,2,29,2,2,4,28,2,10,10,1540
1207,2,29,2,3,12,18,1,12,18,1160
1207,2,29,2,4,30,10,1,30,10,920
1207,2,30,4,1,15,30,1,15,30,1319
1207,2,30,4,2,17,3,1,17,3,1744
1207,2,30,4,3,4,28,2,10,10,1326
1207,2,30,4,4,18,12,1,18,12,1034
1207,2,31,1,1,7,13,2,10,10,1235
1207,2,31,1,2,10,18,1,10,18,1664
1207,2,31,1,3,18,10,1,18,10,1209
1207,2,31,1,4,11,6,2,10,10,1805
1207,2,32,3,1,2,2,2,10,10,1158
1207,2,32,3,2,17,3,2,10,10,1525
1207,2,32,3,3,12,22,1,12,22,1358
1207,2,32,3,4,7,13,2,10,10,1127
1207,2,33,4,1,30,15,1,30,15,1089
1207,2,33,4,2,8,16,2,10,10,1594
1207,2,33,4,3,11,6,1,11,6,1363
1207,2,33,4,4,30,25,1,30,25,1423
1207,2,34,2,1,18,18,1,18,18,1852
1207,2,34,2,2,7,13,2,10,10,1393
1207,2,34,2,3,25,30,1,25,30,994
1207,2,34,2,4,11,6,1,11,6,1357
1207,3,1,1,1,30,15,1,30,15,1104
1207,3,1,1,2,1,13,2,10,10,1182
1207,3,1,1,3,31,3,2,10,10,1639
1207,3,1,1,4,10,18,1,10,18,1309
1207,3,3,3,1,30,10,1,30,10,1333
1207,3,3,3,2,10,22,2,10,10,1338
1207,3,3,3,3,4,28,2,10,10,1128
1207,3,3,3,4,12,3,1,12,3,1099
1207,3,5,4,1,17,3,1,17,3,1102
1207,3,5,4,2,8,16,2,10,10,1108
1207,3,5,4,3,10,18,2,10,10,1507
1207,3,5,4,4,18,10,1,18,10,880
1207,3,6,2,1,4,28,2,10,10,1079
1207,3,6,2,2,12,3,2,10,10,1182
1207,3,6,2,3,18,10,1,18,10,936
1207,3,6,2,4,15,30,2,10,10,1442
1207,3,8,1,1,11,8,2,10,10,1377
1207,3,8,1,2,2,18,2,10,10,1205
1207,3,8,1,3,30,10,1,30,10,1733
1207,3,8,1,4,15,30,1,15,30,1145
1207,3,9,4,1,10,22,2,10,10,1217
1207,3,9,4,2,11,8,1,11,8,916
1207,3,9,4,3,18,12,1,18,12,820
1207,3,9,4,4,7,13,2,10,10,1088
1207,3,11,3,1,18,10,1,18,10,1088
1207,3,11,3,2,10,18,2,10,10,1280
1207,3,11,3,3,2,18,2,10,10,934
1207,3,11,3,4,17,3,1,17,3,1744
1207,3,12,2,1,10,22,2,10,10,1299
1207,3,12,2,2,8,16,2,10,10,963
1207,3,12,2,3,30,10,1,30,10,740
1207,3,12,2,4,12,8,1,12,8,1702
1207,3,14,1,1,18,10,1,18,10,1761
1207,3,14,1,2,12,18,1,12,18,1584
1207,3,14,1,3,17,3,2,10,10,1444
1207,3,14,1,4,4,28,2,10,10,1477
1207,3,16,3,1,11,8,2,10,10,1413
1207,3,16,3,2,22,12,1,22,12,1071
1207,3,16,3,3,8,16,2,10,10,1172
1207,3,16,3,4,10,30,2,10,10,1104
1207,3,17,4,1,10,30,2,10,10,1613
1207,3,17,4,2,12,8,2,10,10,1555
1207,3,17,4,3,22,12,1,22,12,903
1207,3,17,4,4,4,28,2,10,10,955
1207,3,18,2,1,11,8,2,10,10,1545
1207,3,18,2,2,7,13,2,10,10,1281
1207,3,18,2,3,22,10,1,22,10,1429
1207,3,18,2,4,10,30,2,10,10,1151
1207,3,20,3,1,12,18,1,12,18,1052
1207,3,20,3,2,16,8,1,16,8,1259
1207,3,20,3,3,30,15,1,30,15,791
1207,3,20,3,4,1,13,2,10,10,1116
1207,3,21,1,1,12,3,2,10,10,1225
1207,3,21,1,2,18,12,1,18,12,2113
1207,3,21,1,3,10,30,1,10,30,1597
1207,3,21,1,4,7,13,2,10,10,2254
1207,3,22,2,1,12,18,1,12,18,1291
1207,3,22,2,2,2,18,2,10,10,1226
1207,3,22,2,3,18,12,1,18,12,1307
1207,3,22,2,4,16,8,2,10,10,1511
1207,3,24,4,1,31,3,2,10,10,1231
1207,3,24,4,2,7,11,2,10,10,1027
1207,3,24,4,3,30,15,1,30,15,1097
1207,3,24,4,4,15,30,1,15,30,2622
1207,3,26,3,1,22,10,1,22,10,915
1207,3,26,3,2,12,22,1,12,22,1416
1207,3,26,3,3,7,11,2,10,10,930
1207,3,26,3,4,12,8,2,10,10,1179
1207,3,27,2,1,7,11,2,10,10,826
1207,3,27,2,2,12,22,1,12,22,1121
1207,3,27,2,3,17,3,2,10,10,1288
1207,3,27,2,4,30,15,1,30,15,1056
1207,3,28,4,1,30,10,1,30,10,717
1207,3,28,4,2,12,3,2,10,10,1013
1207,3,28,4,3,2,18,2,10,10,1221
1207,3,28,4,4,12,18,1,12,18,2027
1207,3,29,1,1,8,16,2,10,10,1537
1207,3,29,1,2,12,8,2,10,10,1416
1207,3,29,1,3,22,12,1,22,12,1326
1207,3,29,1,4,12,22,1,12,22,1040
1207,3,32,3,1,15,30,1,15,30,1093
1207,3,32,3,2,31,3,1,31,3,979
1207,3,32,3,3,18,12,1,18,12,939
1207,3,32,3,4,7,13,2,10,10,917
1207,3,33,4,1,12,22,1,12,22,1223
1207,3,33,4,2,16,8,1,16,8,1227
1207,3,33,4,3,22,10,1,22,10,898
1207,3,33,4,4,1,13,2,10,10,962
1207,3,34,2,1,1,13,2,10,10,768
1207,3,34,2,2,22,12,1,22,12,784
1207,3,34,2,3,31,3,2,10,10,1119
1207,3,34,2,4,10,18,1,10,18,1636
1207,3,35,1,1,10,22,2,10,10,1478
1207,3,35,1,2,7,11,2,10,10,1123
1207,3,35,1,3,22,10,1,22,10,852
1207,3,35,1,4,16,8,2,10,10,1628
1208,1,1,4,1,12,3,2,10,10,1021
1208,1,1,4,2,30,25,1,30,25,2368
1208,1,1,4,3,6,22,2,10,10,2376
1208,1,13,1,1,30,10,2,10,10,1044
1208,1,4,2,1,31,3,2,10,10,2162
1208,1,4,2,2,22,10,2,10,10,1530
1208,1,4,2,3,30,25,2,10,10,1630
1208,1,4,2,4,4,12,1,4,12,2533
1208,1,5,3,1,11,6,1,11,6,1929
1208,1,5,3,2,20,30,2,10,10,1424
1208,1,5,3,3,4,16,2,10,10,1227
1208,1,5,3,4,10,26,2,10,10,2297
1208,1,6,1,1,22,6,2,10,10,1726
1208,1,6,1,2,10,26,1,10,26,1365
1208,1,6,1,3,25,30,1,25,30,2050
1208,1,6,1,4,4,12,1,4,12,1738
1208,1,7,4,1,11,6,1,11,6,1239
1208,1,7,4,2,12,18,2,10,10,2423
1208,1,7,4,3,22,10,1,22,10,1990
1208,1,7,4,4,4,28,2,10,10,3183
1208,1,11,2,1,10,30,2,10,10,2068
1208,1,11,2,2,25,30,1,25,30,2709
1208,1,11,2,3,6,22,2,10,10,1685
1208,1,11,2,4,11,8,2,10,10,1940
1208,1,13,1,3,7,11,1,7,11,1414
1208,1,12,3,2,31,3,1,31,3,1592
1208,1,12,3,3,30,20,1,30,20,1593
1208,1,12,3,4,26,14,1,26,14,1827
1208,1,13,1,2,12,8,2,10,10,1493
1208,1,13,1,4,14,26,1,14,26,2052
1208,1,14,3,1,11,8,1,11,8,2217
1208,1,14,3,2,26,10,1,26,10,1582
1208,1,14,3,3,30,29,1,30,29,2235
1208,1,14,3,4,8,16,2,10,10,1921
1208,1,15,4,1,20,30,2,10,10,1668
1208,1,15,4,2,8,16,2,10,10,1363
1208,1,15,4,3,14,26,1,14,26,2483
1208,1,15,4,4,31,3,1,31,3,2128
1208,1,17,1,1,22,6,2,10,10,2030
1208,1,17,1,2,6,22,1,6,22,1112
1208,1,17,1,3,26,10,2,10,10,2572
1208,1,17,1,4,30,20,2,10,10,1855
1208,1,19,3,1,4,16,2,10,10,1981
1208,1,19,3,2,12,3,2,10,10,2505
1208,1,19,3,3,10,22,1,10,22,2560
1208,1,19,3,4,30,15,1,30,15,1179
1208,1,20,1,1,4,16,1,4,16,1433
1208,1,20,1,2,12,3,2,10,10,1336
1208,1,20,1,3,10,22,1,10,22,1680
1208,1,20,1,4,20,30,1,20,30,1360
1208,1,21,4,1,4,12,2,10,10,2318
1208,1,21,4,2,30,29,1,30,29,1488
1208,1,21,4,3,14,6,1,14,6,2025
1208,1,21,4,4,25,30,1,25,30,1105
1208,1,22,3,1,12,22,2,10,10,2693
1208,1,22,3,2,14,6,1,14,6,1358
1208,1,22,3,3,22,12,1,22,12,731
1208,1,22,3,4,4,12,2,10,10,1696
1208,1,23,2,1,14,6,1,14,6,2825
1208,1,23,2,2,20,30,1,20,30,1025
1208,1,23,2,3,2,18,2,10,10,861
1208,1,23,2,4,12,22,1,12,22,1366
1208,1,25,4,1,26,14,1,26,14,798
1208,1,25,4,2,15,30,1,15,30,931
1208,1,36,2,4,7,11,2,10,10,3257
1208,1,25,4,4,14,6,1,14,6,889
1208,1,27,2,1,4,16,2,10,10,1064
1208,1,27,2,2,10,22,1,10,22,1735
1208,1,27,2,3,11,6,1,11,6,2087
1208,1,27,2,4,26,10,1,26,10,1426
1208,1,28,1,1,2,2,2,10,10,2540
1208,1,28,1,2,26,14,1,26,14,1234
1208,1,28,1,3,4,16,1,4,16,1275
1208,1,28,1,4,16,8,2,10,10,1183
1208,1,29,3,1,17,3,2,10,10,2334
1208,1,29,3,2,6,22,2,10,10,1965
1208,1,29,3,3,10,18,2,10,10,2045
1208,1,29,3,4,18,10,1,18,10,1773
1208,1,32,2,1,14,6,2,10,10,2886
1208,1,32,2,2,6,22,1,6,22,1083
1208,1,32,2,3,18,12,1,18,12,2138
1208,1,32,2,4,2,2,2,10,10,1733
1208,1,33,4,1,11,8,1,11,8,1755
1208,1,33,4,2,10,18,1,10,18,3400
1208,1,33,4,3,18,12,1,18,12,3042
1208,1,33,4,4,2,18,2,10,10,1701
1208,1,34,1,1,18,18,1,18,18,1480
1208,1,34,1,2,31,3,2,10,10,996
1208,1,34,1,3,2,18,1,2,18,2278
1208,1,34,1,4,10,18,1,10,18,1170
1208,1,36,2,1,30,10,1,30,10,1777
1208,1,36,2,2,12,18,1,12,18,1344
1208,1,36,2,3,17,3,1,17,3,2848
1208,2,1,2,1,14,26,1,14,26,1650
1208,2,1,2,2,4,12,2,10,10,1899
1208,2,1,2,3,12,8,1,12,8,2151
1208,2,1,2,4,18,18,1,18,18,1866
1208,2,4,1,1,30,29,1,30,29,2760
1208,2,4,1,2,18,10,2,10,10,2462
1208,2,4,1,3,4,12,1,4,12,2021
1208,2,4,1,4,14,6,2,10,10,2509
1208,2,5,3,1,4,12,2,10,10,2771
1208,2,5,3,2,18,12,1,18,12,1423
1208,2,5,3,3,30,25,1,30,25,1524
1208,2,5,3,4,22,6,1,22,6,1494
1208,2,6,4,1,4,16,2,10,10,1587
1208,2,6,4,2,22,6,1,22,6,2337
1208,2,6,4,3,10,22,2,10,10,2280
1208,2,6,4,4,30,15,1,30,15,1662
1208,2,8,2,1,30,15,1,30,15,1620
1208,2,8,2,2,30,29,1,30,29,1632
1208,2,8,2,3,22,6,1,22,6,2003
1208,2,8,2,4,1,13,2,10,10,3009
1208,2,10,1,1,29,30,1,29,30,2161
1208,2,10,1,2,10,30,1,10,30,1787
1208,2,10,1,3,1,13,1,1,13,2219
1208,2,10,1,4,14,6,2,10,10,1370
1208,2,11,4,1,4,12,1,4,12,1782
1208,2,11,4,2,30,20,1,30,20,1889
1208,2,11,4,3,12,8,2,10,10,2417
1208,2,11,4,4,18,10,1,18,10,2120
1208,2,12,3,1,6,22,2,10,10,1523
1208,2,12,3,2,15,30,1,15,30,2005
1208,2,12,3,3,16,8,1,16,8,1320
1208,2,12,3,4,2,2,2,10,10,1057
1208,2,13,4,1,4,16,2,10,10,1456
1208,2,13,4,2,29,30,1,29,30,1708
1208,2,13,4,3,11,6,2,10,10,1342
1208,2,13,4,4,10,26,2,10,10,2288
1208,2,16,2,1,15,30,1,15,30,1681
1208,2,16,2,2,16,8,2,10,10,1387
1208,2,16,2,3,8,16,2,10,10,2169
1208,2,16,2,4,22,12,1,22,12,858
1208,2,17,1,1,12,18,1,12,18,1950
1208,2,17,1,2,22,12,1,22,12,1873
1208,2,17,1,3,11,6,2,10,10,970
1208,2,17,1,4,6,22,1,6,22,1387
1208,2,18,3,1,29,30,1,29,30,1649
1208,2,18,3,2,14,26,1,14,26,2388
1208,2,18,3,3,2,18,2,10,10,1017
1208,2,18,3,4,14,6,1,14,6,1133
1208,2,19,1,1,12,22,1,12,22,1988
1208,2,19,1,2,11,8,2,10,10,984
1208,2,19,1,3,22,10,1,22,10,1924
1208,2,19,1,4,7,13,1,7,13,1669
1208,2,20,4,1,16,8,2,10,10,2014
1208,2,20,4,2,22,12,1,22,12,1779
1208,2,20,4,3,18,18,1,18,18,1691
1208,2,20,4,4,1,13,2,10,10,1677
1208,2,21,1,1,15,30,1,15,30,1782
1208,2,21,1,2,17,3,1,17,3,1727
1208,2,21,1,3,4,28,1,4,28,1150
1208,2,21,1,4,18,12,1,18,12,2102
1208,2,22,2,1,30,20,1,30,20,1968
1208,2,22,2,2,4,28,2,10,10,1592
1208,2,22,2,3,22,6,1,22,6,2030
1208,2,22,2,4,29,30,1,29,30,1343
1208,2,25,3,1,12,8,1,12,8,2015
1208,2,25,3,2,1,13,2,10,10,1165
1208,2,25,3,3,22,10,1,22,10,927
1208,2,25,3,4,10,30,1,10,30,2478
1208,2,27,4,1,6,22,2,10,10,1672
1208,2,27,4,2,26,10,1,26,10,2118
1208,2,27,4,3,22,6,1,22,6,1199
1208,2,27,4,4,10,30,2,10,10,1512
1208,2,29,2,1,4,16,1,4,16,1920
1208,2,29,2,2,12,3,1,12,3,1581
1208,2,29,2,3,10,26,1,10,26,1253
1208,2,29,2,4,26,14,1,26,14,1233
1208,2,31,3,1,22,6,2,10,10,1213
1208,2,31,3,2,4,28,1,4,28,1616
1208,2,31,3,3,12,18,1,12,18,1559
1208,2,33,1,1,30,15,1,30,15,1342
1208,2,33,1,2,8,16,1,8,16,1069
1208,2,33,1,3,11,6,2,10,10,1066
1208,2,33,1,4,30,25,1,30,25,871
1208,2,34,4,1,2,2,2,10,10,1100
1208,2,34,4,2,17,3,2,10,10,1535
1208,2,34,4,3,12,22,1,12,22,1968
1208,2,34,4,4,7,13,1,7,13,2661
1208,2,35,2,1,7,13,1,7,13,2302
1208,2,35,2,2,10,18,1,10,18,1082
1208,2,35,2,3,18,10,1,18,10,1127
1208,2,35,2,4,11,6,2,10,10,1126
1208,2,36,3,1,18,18,1,18,18,1025
1208,2,36,3,2,7,13,2,10,10,1767
1208,2,36,3,3,25,30,1,25,30,960
1208,2,36,3,4,11,6,2,10,10,1439
1208,3,1,1,1,17,3,2,10,10,1829
1208,3,1,1,2,8,16,1,8,16,1137
1208,3,1,1,3,10,18,1,10,18,834
1208,3,1,1,4,18,10,1,18,10,1480
1208,3,2,4,2,10,22,1,10,22,934
1208,3,2,4,3,4,28,2,10,10,1756
1208,3,2,4,4,12,3,2,10,10,1089
1208,3,4,2,1,30,15,1,30,15,1624
1208,3,4,2,2,1,13,2,10,10,896
1208,3,4,2,3,31,3,2,10,10,1699
1208,3,4,2,4,10,18,1,10,18,1500
1208,3,5,3,1,4,28,2,10,10,1638
1208,3,5,3,2,12,3,1,12,3,1241
1208,3,5,3,3,18,10,1,18,10,1101
1208,3,5,3,4,15,30,1,15,30,1207
1208,3,7,4,1,18,10,1,18,10,1097
1208,3,7,4,2,10,18,1,10,18,1523
1208,3,7,4,3,2,18,2,10,10,1830
1208,3,7,4,4,17,3,1,17,3,1506
1208,3,8,1,1,10,22,1,10,22,1370
1208,3,8,1,2,11,8,2,10,10,1793
1208,3,8,1,3,18,12,1,18,12,1052
1208,3,8,1,4,7,13,1,7,13,1407
1208,3,9,2,1,11,8,1,11,8,2079
1208,3,9,2,2,2,18,1,2,18,1258
1208,3,10,3,3,30,10,1,30,10,1075
1208,3,9,2,4,15,30,1,15,30,1415
1208,3,10,3,1,10,22,1,10,22,927
1208,3,10,3,2,8,16,2,10,10,1742
1208,1,1,4,4,30,10,1,30,10,2328
1208,3,10,3,4,12,8,2,10,10,2079
1208,3,13,3,1,11,8,1,11,8,2344
1208,3,13,3,2,7,13,2,10,10,1629
1208,3,13,3,3,22,10,1,22,10,1211
1208,3,13,3,4,10,30,1,10,30,1989
1208,3,14,1,1,10,30,1,10,30,1501
1208,3,14,1,2,12,8,2,10,10,1768
1208,3,14,1,3,22,12,1,22,12,1919
1208,3,14,1,4,4,28,1,4,28,2474
1208,3,16,2,1,18,10,1,18,10,1525
1208,3,16,2,2,12,18,1,12,18,1139
1208,3,16,2,3,17,3,1,17,3,811
1208,3,16,2,4,4,28,2,10,10,1087
1208,3,17,4,1,11,8,1,11,8,1479
1208,3,17,4,2,22,12,1,22,12,1277
1208,3,17,4,3,8,16,2,10,10,2067
1208,3,17,4,4,10,30,1,10,30,1734
1208,3,18,1,1,31,3,2,10,10,933
1208,1,12,3,1,7,11,2,10,10,2145
1208,3,18,1,3,30,15,1,30,15,1851
1208,3,18,1,4,15,30,1,15,30,1085
1208,3,19,3,1,12,18,1,12,18,1294
1208,3,19,3,2,2,18,2,10,10,1872
1208,3,19,3,3,18,12,1,18,12,936
1208,3,19,3,4,16,8,2,10,10,1989
1208,3,20,2,1,12,3,2,10,10,1936
1208,3,20,2,2,18,12,1,18,12,1629
1208,3,20,2,3,10,30,1,10,30,1322
1208,3,20,2,4,7,13,2,10,10,1333
1208,3,23,4,1,12,18,1,12,18,1577
1208,3,23,4,2,16,8,1,16,8,1924
1208,3,23,4,3,30,15,1,30,15,954
1208,3,23,4,4,1,13,2,10,10,1234
1208,3,24,2,1,8,16,1,8,16,1609
1208,3,24,2,2,12,8,1,12,8,2908
1208,3,24,2,3,22,12,1,22,12,1130
1208,3,24,2,4,12,22,1,12,22,1841
1208,3,25,1,2,12,3,2,10,10,1724
1208,3,25,1,3,2,18,1,2,18,2225
1208,3,25,1,4,12,18,1,12,18,1306
1208,3,26,3,2,12,22,1,12,22,1015
1208,3,26,3,3,17,3,2,10,10,1760
1208,3,26,3,4,30,15,1,30,15,1212
1208,3,27,4,1,22,10,1,22,10,1369
1208,3,27,4,2,12,22,1,12,22,982
1208,1,25,4,3,7,11,2,10,10,667
1208,3,27,4,4,12,8,2,10,10,1237
1208,3,30,2,1,10,22,1,10,22,1804
1208,3,30,2,3,22,10,1,22,10,1187
1208,3,30,2,4,16,8,1,16,8,1116
1208,3,31,3,1,1,13,2,10,10,1150
1208,3,31,3,2,22,12,1,22,12,792
1208,3,31,3,3,31,3,1,31,3,1277
1208,3,31,3,4,10,18,1,10,18,1212
1208,3,33,4,1,15,30,1,15,30,920
1208,3,33,4,2,31,3,1,31,3,767
1208,3,33,4,3,18,12,1,18,12,730
1208,3,33,4,4,7,13,2,10,10,1167
1208,3,35,1,1,12,22,1,12,22,1129
1208,3,35,1,2,16,8,1,16,8,1381
1208,3,35,1,3,22,10,1,22,10,1467
1208,3,35,1,4,1,13,2,10,10,1094
1210,1,1,3,1,22,6,2,10,10,926
1210,1,1,3,2,10,26,1,10,26,1255
1210,1,1,3,3,25,30,2,10,10,727
1210,1,1,3,4,4,12,2,10,10,811
1210,1,2,1,1,11,6,2,10,10,571
1210,1,2,1,2,20,30,1,20,30,644
1210,1,2,1,3,4,16,2,10,10,632
1210,1,2,1,4,10,26,2,10,10,451
1210,1,3,4,1,31,3,2,10,10,692
1210,1,3,4,2,22,10,1,22,10,746
1210,1,3,4,3,30,25,1,30,25,624
1210,1,3,4,4,4,12,2,10,10,555
1210,1,5,2,1,12,3,2,10,10,708
1210,1,5,2,2,30,25,1,30,25,739
1210,1,5,2,3,6,22,2,10,10,592
1210,1,5,2,4,30,10,1,30,10,559
1210,1,8,4,1,10,30,1,10,30,730
1210,1,8,4,2,25,30,1,25,30,545
1210,1,8,4,3,6,22,2,10,10,788
1210,1,8,4,4,11,8,1,11,8,678
1210,1,9,3,1,30,10,1,30,10,721
1210,1,9,3,2,12,8,1,12,8,672
1210,1,9,3,3,7,11,2,10,10,546
1210,1,9,3,4,14,26,1,14,26,541
1210,1,11,1,1,7,11,2,10,10,550
1210,1,11,1,2,31,3,1,31,3,785
1210,1,11,1,3,30,20,1,30,20,631
1210,1,11,1,4,26,14,1,26,14,684
1210,1,13,2,1,11,6,2,10,10,794
1210,1,13,2,2,12,18,1,12,18,697
1210,1,13,2,3,22,10,1,22,10,773
1210,1,13,2,4,4,28,2,10,10,746
1210,1,14,4,1,14,6,2,10,10,705
1210,1,14,4,2,20,30,1,20,30,564
1210,1,14,4,3,2,18,2,10,10,577
1210,1,14,4,4,12,22,1,12,22,733
1210,1,15,1,1,11,8,2,10,10,790
1210,1,15,1,2,26,10,1,26,10,628
1210,1,15,1,3,30,29,1,30,29,682
1210,1,15,1,4,8,16,2,10,10,824
1210,1,16,3,1,22,6,2,10,10,747
1210,1,16,3,2,6,22,2,10,10,710
1210,1,16,3,3,26,10,1,26,10,820
1210,1,16,3,4,30,20,1,30,20,645
1210,1,18,2,1,20,30,1,20,30,658
1210,1,18,2,2,8,16,2,10,10,713
1210,1,18,2,3,14,26,1,14,26,652
1210,1,18,2,4,31,3,2,10,10,699
1210,1,19,4,1,4,16,2,10,10,601
1210,1,19,4,2,10,22,1,10,22,875
1210,1,19,4,3,11,6,2,10,10,654
1210,1,19,4,4,26,10,1,26,10,677
1210,1,21,1,1,4,16,2,10,10,716
1210,1,21,1,2,12,3,2,10,10,575
1210,1,21,1,3,10,22,1,10,22,723
1210,1,21,1,4,30,15,1,30,15,658
1210,1,22,2,1,4,12,2,10,10,730
1210,1,22,2,2,30,29,1,30,29,642
1210,1,22,2,3,14,6,2,10,10,736
1210,1,22,2,4,25,30,1,25,30,819
1210,1,23,3,1,4,16,2,10,10,727
1210,1,23,3,2,12,3,2,10,10,704
1210,1,23,3,3,10,22,1,10,22,882
1210,1,23,3,4,20,30,1,20,30,686
1210,1,26,3,1,2,2,2,10,10,1181
1210,1,26,3,2,26,14,1,26,14,588
1210,1,26,3,3,4,16,2,10,10,614
1210,1,26,3,4,16,8,2,10,10,482
1210,1,27,1,1,12,22,2,10,10,809
1210,1,27,1,2,14,6,2,10,10,656
1210,1,27,1,3,22,12,1,22,12,685
1210,1,27,1,4,4,12,2,10,10,746
1210,1,28,2,1,26,14,1,26,14,653
1210,1,28,2,2,15,30,1,15,30,624
1210,1,28,2,3,7,11,2,10,10,472
1210,1,28,2,4,14,6,2,10,10,737
1210,1,29,4,1,14,6,1,14,6,1048
1210,1,29,4,2,6,22,2,10,10,573
1210,1,29,4,3,18,12,2,10,10,555
1210,1,29,4,4,2,2,2,10,10,873
1210,1,32,3,2,31,3,2,10,10,487
1210,1,32,3,3,2,18,2,10,10,863
1210,1,32,3,4,10,18,1,10,18,976
1210,1,33,1,1,17,3,1,17,3,654
1210,1,33,1,2,6,22,2,10,10,511
1210,1,33,1,3,10,18,1,10,18,656
1210,1,33,1,4,18,10,1,18,10,654
1210,1,35,4,1,30,10,1,30,10,894
1210,1,35,4,2,12,18,1,12,18,930
1210,1,35,4,3,17,3,2,10,10,1025
1210,1,35,4,4,7,11,2,10,10,846
1210,1,36,2,1,11,8,2,10,10,822
1210,1,36,2,2,10,18,1,10,18,678
1210,1,36,2,3,18,12,1,18,12,702
1210,1,36,2,4,2,18,2,10,10,600
1210,2,2,3,1,30,29,1,30,29,694
1210,2,2,3,2,18,10,1,18,10,768
1210,2,2,3,3,4,12,2,10,10,626
1210,2,2,3,4,14,6,2,10,10,820
1210,2,3,1,1,4,12,2,10,10,622
1210,2,3,1,2,18,12,1,18,12,600
1210,2,3,1,3,30,25,1,30,25,548
1210,2,3,1,4,22,6,2,10,10,993
1210,2,4,4,1,14,26,1,14,26,793
1210,2,4,4,2,4,12,2,10,10,772
1210,2,4,4,3,12,8,2,10,10,778
1210,2,6,2,1,4,16,2,10,10,756
1210,2,6,2,2,22,6,2,10,10,814
1210,2,6,2,3,10,22,1,10,22,725
1210,2,6,2,4,30,15,1,30,15,704
1210,2,7,3,1,29,30,1,29,30,683
1210,2,7,3,2,10,30,1,10,30,719
1210,2,7,3,3,1,13,2,10,10,652
1210,2,7,3,4,14,6,1,14,6,890
1210,2,9,1,1,6,22,2,10,10,840
1210,2,9,1,2,15,30,1,15,30,682
1210,2,9,1,3,16,8,2,10,10,721
1210,2,9,1,4,2,2,2,10,10,504
1210,2,10,2,1,4,12,2,10,10,595
1210,2,10,2,2,30,20,1,30,20,638
1210,2,10,2,3,12,8,2,10,10,711
1210,2,10,2,4,18,10,2,10,10,843
1210,2,11,4,1,30,15,1,30,15,654
1210,2,11,4,2,30,29,1,30,29,960
1210,2,11,4,3,22,6,1,22,6,1014
1210,2,11,4,4,1,13,2,10,10,1294
1210,2,13,3,1,12,18,1,12,18,837
1210,2,13,3,2,22,12,1,22,12,1044
1210,2,13,3,3,11,6,2,10,10,668
1210,2,13,3,4,6,22,2,10,10,624
1210,2,15,1,1,29,30,1,29,30,571
1210,2,15,1,2,14,26,1,14,26,871
1210,2,15,1,3,2,18,2,10,10,597
1210,2,15,1,4,14,6,2,10,10,799
1210,2,17,4,1,15,30,1,15,30,838
1210,2,17,4,2,16,8,2,10,10,709
1210,2,17,4,3,8,16,2,10,10,695
1210,2,17,4,4,22,12,1,22,12,1177
1210,2,18,2,1,4,16,2,10,10,618
1210,2,18,2,2,29,30,1,29,30,603
1210,2,18,2,3,11,6,2,10,10,711
1210,2,18,2,4,10,26,1,10,26,581
1210,2,19,3,1,12,22,1,12,22,449
1210,2,19,3,2,11,8,1,11,8,592
1210,2,19,3,3,22,10,1,22,10,621
1210,2,20,1,1,12,8,1,12,8,831
1210,2,20,1,2,1,13,2,10,10,613
1210,2,20,1,3,22,10,1,22,10,589
1210,2,20,1,4,10,30,2,10,10,845
1210,2,22,4,1,30,20,1,30,20,722
1210,2,22,4,2,4,28,2,10,10,884
1210,2,22,4,3,22,6,2,10,10,730
1210,2,22,4,4,29,30,1,29,30,610
1210,2,24,2,1,16,8,2,10,10,593
1210,2,24,2,2,22,12,1,22,12,545
1210,2,24,2,4,1,13,2,10,10,663
1210,2,25,3,1,15,30,1,15,30,547
1210,2,25,3,2,17,3,1,17,3,926
1210,2,25,3,3,4,28,2,10,10,665
1210,2,25,3,4,18,12,2,10,10,495
1210,2,26,1,1,22,6,2,10,10,502
1210,2,26,1,2,4,28,2,10,10,837
1210,2,26,1,3,12,18,2,10,10,655
1210,2,26,1,4,30,10,1,30,10,914
1210,2,29,2,1,6,22,2,10,10,824
1210,2,29,2,2,26,10,1,26,10,470
1210,2,29,2,3,22,6,1,22,6,587
1210,2,29,2,4,10,30,1,10,30,987
1210,2,30,4,1,4,16,2,10,10,617
1210,2,30,4,2,12,3,1,12,3,779
1210,2,30,4,3,10,26,1,10,26,728
1210,2,30,4,4,26,14,1,26,14,756
1210,3,14,1,2,7,13,2,10,10,584
1210,2,31,1,3,25,30,2,10,10,14
1210,2,31,1,4,11,6,2,10,10,905
1210,2,32,3,1,30,15,2,10,10,130
1210,2,32,3,2,8,16,2,10,10,1143
1210,2,32,3,3,11,6,2,10,10,745
1210,2,32,3,4,30,25,1,30,25,530
1210,2,33,4,2,10,18,1,10,18,884
1210,2,33,4,3,18,10,1,18,10,1699
1210,2,33,4,4,11,6,1,11,6,392
1210,2,34,2,1,2,2,2,10,10,901
1210,2,34,2,2,17,3,2,10,10,1489
1210,2,34,2,3,12,22,1,12,22,690
1210,3,34,2,4,7,13,2,10,10,821
1210,3,1,1,1,4,28,1,4,28,631
1210,3,1,1,2,12,3,2,10,10,716
1210,3,1,1,3,18,10,1,18,10,574
1210,3,1,1,4,15,30,1,15,30,699
1210,3,3,3,1,17,3,2,10,10,747
1210,3,3,3,2,8,16,2,10,10,664
1210,3,3,3,3,10,18,1,10,18,926
1210,3,3,3,4,18,10,1,18,10,674
1210,3,5,4,1,30,15,1,30,15,653
1210,3,5,4,2,1,13,2,10,10,658
1210,3,5,4,3,31,3,2,10,10,529
1210,3,5,4,4,10,18,1,10,18,918
1210,3,6,2,1,30,10,1,30,10,573
1210,3,6,2,2,10,22,1,10,22,669
1210,3,6,2,3,4,28,2,10,10,575
1210,3,6,2,4,12,3,2,10,10,777
1210,3,8,1,1,10,22,1,10,22,760
1210,3,8,1,2,8,16,2,10,10,804
1210,3,8,1,3,30,10,2,10,10,772
1210,3,8,1,4,12,8,2,10,10,832
1210,3,9,4,1,11,8,2,10,10,744
1210,3,9,4,2,2,18,2,10,10,651
1210,3,9,4,3,30,10,1,30,10,555
1210,3,9,4,4,15,30,1,15,30,745
1210,3,11,3,1,10,22,1,10,22,585
1210,3,11,3,2,11,8,2,10,10,607
1210,3,11,3,3,18,12,1,18,12,613
1210,3,12,2,1,18,10,1,18,10,587
1210,3,12,2,2,10,18,1,10,18,652
1210,3,12,2,3,2,18,2,10,10,678
1210,3,12,2,4,17,3,2,10,10,664
1210,3,14,1,1,11,8,2,10,10,617
1210,3,11,3,4,7,13,2,10,10,743
1210,3,14,1,3,22,10,1,22,10,637
1210,3,14,1,4,10,30,1,10,30,716
1210,3,16,3,1,10,30,1,10,30,708
1210,3,16,3,2,12,8,1,12,8,702
1210,3,16,3,3,22,12,1,22,12,700
1210,3,16,3,4,4,28,2,10,10,975
1210,3,17,4,1,18,10,1,18,10,685
1210,3,17,4,2,12,18,1,12,18,698
1210,3,17,4,3,17,3,2,10,10,965
1210,3,17,4,4,4,28,2,10,10,737
1210,3,18,2,1,11,8,2,10,10,711
1210,3,18,2,2,22,12,1,22,12,600
1210,3,18,2,3,8,16,2,10,10,747
1210,3,18,2,4,10,30,1,10,30,741
1210,3,20,3,1,31,3,2,10,10,803
1210,3,20,3,2,7,11,2,10,10,793
1210,3,20,3,3,30,15,1,30,15,853
1210,3,20,3,4,15,30,1,15,30,691
1210,3,21,1,1,12,18,1,12,18,770
1210,3,21,1,2,2,18,2,10,10,954
1210,3,21,1,3,18,12,1,18,12,726
1210,3,21,1,4,16,8,2,10,10,704
1210,3,22,2,1,12,18,1,12,18,837
1210,3,22,2,2,16,8,2,10,10,715
1210,3,22,2,3,30,15,1,30,15,580
1210,3,22,2,4,1,13,2,10,10,695
1210,3,24,4,1,12,3,2,10,10,1063
1210,3,24,4,2,18,12,1,18,12,764
1210,3,24,4,3,10,30,1,10,30,792
1210,3,26,3,1,30,10,1,30,10,699
1210,3,26,3,2,12,3,2,10,10,824
1210,3,26,3,3,2,18,2,10,10,659
1210,3,26,3,4,12,18,1,12,18,812
1210,3,27,2,1,22,10,1,22,10,659
1210,3,27,2,2,12,22,1,12,22,890
1210,3,27,2,3,7,11,2,10,10,658
1210,3,27,2,4,12,8,2,10,10,833
1210,3,28,4,1,8,16,2,10,10,783
1210,3,28,4,2,12,8,2,10,10,718
1210,3,28,4,3,22,12,1,22,12,998
1210,3,28,4,4,12,22,1,12,22,796
1210,3,29,1,1,7,11,2,10,10,848
1210,3,29,1,2,12,22,1,12,22,703
1210,3,29,1,3,17,3,2,10,10,950
1210,3,29,1,4,30,15,1,30,15,767
1210,3,32,3,1,12,22,1,12,22,780
1210,3,32,3,2,16,8,2,10,10,898
1210,3,32,3,3,22,10,1,22,10,777
1210,3,32,3,4,1,13,2,10,10,612
1210,3,33,4,1,10,22,1,10,22,677
1210,3,33,4,2,7,11,2,10,10,858
1210,3,33,4,3,22,10,1,22,10,737
1210,3,33,4,4,16,8,2,10,10,1018
1210,3,34,2,1,15,30,1,15,30,833
1210,3,34,2,2,31,3,1,31,3,752
1210,3,34,2,3,18,12,1,18,12,871
1210,3,24,4,4,7,13,2,10,10,654
1210,3,35,1,1,1,13,2,10,10,767
1210,3,35,1,2,22,12,1,22,12,851
1210,3,35,1,3,31,3,2,10,10,835
1210,3,35,1,4,10,18,1,10,18,1195
1211,1,1,4,1,22,6,1,22,6,967
1211,1,1,4,2,10,26,1,10,26,1377
1211,1,1,4,3,25,30,1,25,30,1458
1211,1,1,4,4,4,12,2,10,10,1410
1211,1,4,2,1,11,6,1,11,6,1116
1211,1,4,2,2,20,30,1,20,30,1459
1211,1,4,2,3,4,16,2,10,10,1168
1211,1,4,2,4,10,26,1,10,26,1632
1211,1,5,3,1,12,3,2,10,10,1547
1211,1,5,3,2,30,25,1,30,25,1050
1211,1,5,3,3,6,22,2,10,10,1205
1211,1,5,3,4,30,10,1,30,10,802
1211,1,6,1,1,31,3,2,10,10,1319
1211,1,6,1,2,22,10,1,22,10,1879
1211,1,6,1,3,30,25,1,30,25,1420
1211,1,6,1,4,4,12,2,10,10,1421
1211,1,7,4,1,30,10,1,30,10,1169
1211,1,7,4,2,12,8,2,10,10,1362
1211,1,7,4,3,7,11,2,10,10,1097
1211,1,7,4,4,14,26,1,14,26,1417
1211,1,11,2,1,7,11,2,10,10,1214
1211,1,11,2,2,31,3,2,10,10,1607
1211,1,11,2,3,30,20,1,30,20,1286
1211,1,11,2,4,26,14,1,26,14,822
1211,1,12,3,1,11,6,2,10,10,1475
1211,1,12,3,2,12,18,1,12,18,1114
1211,1,12,3,3,22,10,1,22,10,826
1211,1,12,3,4,4,28,2,10,10,1644
1211,1,13,1,1,10,30,1,10,30,1150
1211,1,13,1,2,25,30,1,25,30,1134
1211,1,13,1,3,6,22,2,10,10,1518
1211,1,13,1,4,11,8,1,11,8,1133
1211,1,14,3,1,20,30,1,20,30,984
1211,1,14,3,2,8,16,2,10,10,1566
1211,1,14,3,3,14,26,1,14,26,1436
1211,1,14,3,4,31,3,1,31,3,914
1211,1,15,4,1,22,6,2,10,10,1676
1211,1,15,4,2,6,22,2,10,10,1349
1211,1,15,4,3,26,10,1,26,10,804
1211,1,15,4,4,30,20,1,30,20,1154
1211,1,17,1,1,14,6,1,14,6,1328
1211,1,17,1,2,20,30,1,20,30,986
1211,1,17,1,4,12,22,1,12,22,1105
1211,1,19,3,1,4,12,2,10,10,959
1211,1,19,3,2,30,29,1,30,29,1085
1211,1,19,3,3,14,6,1,14,6,1074
1211,1,19,3,4,25,30,1,25,30,758
1211,1,20,1,1,4,16,2,10,10,1132
1211,1,20,1,2,10,22,1,10,22,1122
1211,1,20,1,3,11,6,2,10,10,1306
1211,1,20,1,4,26,10,1,26,10,1155
1211,1,21,4,1,4,16,2,10,10,1089
1211,1,21,4,2,12,3,2,10,10,1243
1211,1,21,4,3,10,22,1,10,22,1157
1211,1,21,4,4,20,30,1,20,30,821
1211,1,22,3,1,26,14,1,26,14,888
1211,1,22,3,2,15,30,1,15,30,914
1211,1,22,3,3,7,11,2,10,10,1294
1211,1,22,3,4,14,6,1,14,6,1612
1211,1,23,2,1,11,8,1,11,8,1350
1211,1,23,2,2,26,10,1,26,10,1164
1211,1,23,2,3,30,29,1,30,29,1032
1211,1,23,2,4,8,16,2,10,10,1120
1211,1,25,4,1,2,2,2,10,10,1378
1211,1,25,4,2,26,14,1,26,14,688
1211,1,25,4,3,4,16,2,10,10,1152
1211,1,25,4,4,16,8,1,16,8,1111
1211,1,27,2,1,4,16,2,10,10,974
1211,1,27,2,2,12,3,1,12,3,782
1211,1,27,2,3,10,22,1,10,22,1213
1211,1,27,2,4,30,15,1,30,15,776
1211,1,28,1,1,14,6,2,10,10,1298
1211,1,28,1,2,6,22,2,10,10,943
1211,1,28,1,3,18,12,1,18,12,778
1211,1,28,1,4,2,2,2,10,10,773
1211,1,29,3,1,11,8,2,10,10,1037
1211,1,29,3,2,10,18,1,10,18,908
1211,1,29,3,3,18,12,1,18,12,862
1211,3,8,1,2,2,18,2,10,10,798
1211,1,32,2,1,12,22,1,12,22,997
1211,1,32,2,2,14,6,1,14,6,1010
1211,1,32,2,3,22,12,1,22,12,1018
1211,1,32,2,4,4,12,2,10,10,892
1211,1,33,4,1,18,18,1,18,18,850
1211,1,33,4,2,31,3,1,31,3,1063
1211,1,33,4,4,10,18,1,10,18,1068
1211,1,34,1,1,30,10,1,30,10,943
1211,1,34,1,2,12,18,1,12,18,980
1211,1,34,1,3,17,3,1,17,3,862
1211,1,34,1,4,7,11,2,10,10,841
1211,1,36,2,1,17,3,1,17,3,960
1211,1,36,2,2,6,22,2,10,10,1111
1211,1,36,2,3,10,18,1,10,18,1567
1211,1,36,2,4,18,10,1,18,10,1016
1211,2,1,2,1,4,12,2,10,10,849
1211,2,1,2,2,18,12,1,18,12,1131
1211,2,1,2,3,30,25,1,30,25,814
1211,2,1,2,4,22,6,1,22,6,970
1211,2,4,1,1,14,26,1,14,26,1033
1211,2,4,1,2,4,12,2,10,10,1101
1211,2,4,1,3,12,8,1,12,8,1092
1211,2,4,1,4,18,18,1,18,18,981
1211,2,5,3,1,4,16,2,10,10,865
1211,2,5,3,2,22,6,1,22,6,742
1211,2,5,3,3,10,22,1,10,22,1129
1211,2,5,3,4,30,15,1,30,15,859
1211,2,6,4,1,30,29,1,30,29,904
1211,2,6,4,2,18,10,1,18,10,1198
1211,2,6,4,3,4,12,2,10,10,1084
1211,2,6,4,4,14,6,1,14,6,707
1211,2,8,2,1,6,22,1,6,22,1033
1211,2,8,2,2,15,30,1,15,30,1132
1211,2,8,2,3,16,8,1,16,8,856
1211,2,8,2,4,2,2,2,10,10,685
1211,2,10,1,1,30,15,1,30,15,735
1211,2,10,1,2,30,29,1,30,29,624
1211,2,10,1,3,22,6,1,22,6,615
1211,2,10,1,4,1,13,2,10,10,1110
1211,2,11,4,1,29,30,1,29,30,738
1211,2,11,4,2,10,30,1,10,30,749
1211,2,11,4,3,1,13,2,10,10,828
1211,2,11,4,4,14,6,1,14,6,765
1211,2,12,3,1,4,12,2,10,10,847
1211,2,12,3,2,30,20,1,30,20,888
1211,2,12,3,3,12,8,1,12,8,1187
1211,2,12,3,4,18,10,1,18,10,780
1211,2,13,4,1,12,18,1,12,18,802
1211,2,13,4,2,22,12,1,22,12,671
1211,2,13,4,3,11,6,1,11,6,1082
1211,2,13,4,4,6,22,2,10,10,977
1211,2,16,2,1,29,30,1,29,30,867
1211,2,16,2,2,14,26,1,14,26,901
1211,3,20,2,2,2,18,2,10,10,919
1211,2,16,2,4,14,6,2,10,10,763
1211,2,17,1,1,15,30,1,15,30,919
1211,2,17,1,2,16,8,1,16,8,1114
1211,2,17,1,3,8,16,2,10,10,1066
1211,2,17,1,4,22,12,1,22,12,739
1211,2,18,3,1,4,16,2,10,10,961
1211,2,18,3,2,29,30,1,29,30,701
1211,2,18,3,3,11,6,1,11,6,1033
1211,2,18,3,4,10,26,1,10,26,1116
1211,2,19,1,1,30,20,1,30,20,843
1211,2,19,1,2,4,28,2,10,10,1039
1211,2,19,1,3,22,6,1,22,6,660
1211,2,19,1,4,29,30,1,29,30,637
1211,2,20,4,1,12,22,1,12,22,758
1211,2,20,4,2,11,8,2,10,10,1197
1211,2,20,4,3,22,10,1,22,10,668
1211,2,20,4,4,7,13,2,10,10,757
1211,2,21,1,1,4,16,2,10,10,901
1211,2,21,1,2,12,3,1,12,3,831
1211,2,21,1,3,10,26,1,10,26,1062
1211,2,21,1,4,26,14,1,26,14,718
1211,2,22,2,1,12,8,1,12,8,1431
1211,2,22,2,2,1,13,2,10,10,679
1211,2,22,2,3,22,10,1,22,10,589
1211,2,22,2,4,10,30,1,10,30,1031
1211,2,25,3,1,16,8,1,16,8,741
1211,2,25,3,2,22,12,1,22,12,748
1211,2,25,3,3,18,18,1,18,18,735
1211,2,25,3,4,1,13,2,10,10,748
1211,2,27,4,1,15,30,1,15,30,829
1211,2,27,4,2,17,3,1,17,3,731
1211,2,27,4,3,4,28,1,4,28,981
1211,2,27,4,4,18,12,1,18,12,749
1211,2,29,2,1,22,6,1,22,6,710
1211,2,29,2,2,4,28,2,10,10,1459
1211,2,29,2,3,12,18,1,12,18,875
1211,2,29,2,4,30,10,1,30,10,792
1211,2,31,3,1,6,22,2,10,10,860
1211,2,31,3,2,26,10,1,26,10,616
1211,2,31,3,3,22,6,1,22,6,1095
1211,2,31,3,4,10,30,1,10,30,1046
1211,2,33,1,1,7,13,2,10,10,822
1211,2,33,1,2,10,18,1,10,18,1509
1211,2,33,1,3,18,10,1,18,10,730
1211,2,33,1,4,11,6,1,11,6,998
1211,2,34,4,1,30,15,1,30,15,643
1211,2,34,4,2,8,16,2,10,10,1022
1211,2,34,4,3,11,6,2,10,10,649
1211,2,34,4,4,30,25,1,30,25,693
1211,2,35,2,1,18,18,1,18,18,1174
1211,2,35,2,2,7,13,2,10,10,858
1211,2,35,2,3,25,30,1,25,30,672
1211,2,35,2,4,11,6,1,11,6,1406
1211,2,36,3,1,2,2,2,10,10,761
1211,2,36,3,2,17,3,1,17,3,895
1211,2,36,3,3,12,22,1,12,22,1049
1211,2,36,3,4,7,13,2,10,10,872
1211,3,1,1,1,30,15,1,30,15,634
1211,3,1,1,2,1,13,2,10,10,702
1211,3,1,1,3,31,3,1,31,3,727
1211,3,1,1,4,10,18,1,10,18,966
1211,3,2,4,1,17,3,1,17,3,663
1211,3,2,4,2,8,16,2,10,10,908
1211,3,2,4,3,10,18,1,10,18,1010
1211,3,2,4,4,18,10,1,18,10,585
1211,3,4,2,1,4,28,2,10,10,997
1211,3,4,2,2,12,3,2,10,10,836
1211,3,4,2,3,18,10,1,18,10,960
1211,3,4,2,4,15,30,1,15,30,906
1211,3,5,3,1,30,10,1,30,10,660
1211,3,5,3,2,10,22,1,10,22,903
1211,3,5,3,3,4,28,2,10,10,851
1211,3,5,3,4,12,3,1,12,3,918
1211,3,7,4,1,10,22,1,10,22,846
1211,3,7,4,2,11,8,1,11,8,929
1211,3,7,4,3,18,12,1,18,12,707
1211,3,7,4,4,7,13,2,10,10,736
1211,3,8,1,1,11,8,1,11,8,839
1211,1,29,3,4,2,18,2,10,10,942
1211,3,8,1,3,30,10,1,30,10,705
1211,3,8,1,4,15,30,1,15,30,972
1211,3,9,2,1,10,22,1,10,22,1053
1211,3,9,2,2,8,16,2,10,10,1175
1211,3,9,2,3,30,10,1,30,10,697
1211,3,9,2,4,12,8,2,10,10,884
1211,3,10,3,1,18,10,1,18,10,724
1211,3,10,3,2,10,18,1,10,18,1179
1211,3,10,3,4,17,3,1,17,3,748
1211,3,13,3,1,11,8,1,11,8,1461
1211,3,13,3,2,22,12,1,22,12,800
1211,3,13,3,3,8,16,2,10,10,878
1211,3,13,3,4,10,30,1,10,30,784
1211,3,14,1,1,18,10,1,18,10,799
1211,3,14,1,2,12,18,1,12,18,939
1211,3,14,1,3,17,3,1,17,3,634
1211,3,14,1,4,4,28,2,10,10,965
1211,3,16,2,1,11,8,1,11,8,926
1211,3,16,2,2,7,13,2,10,10,845
1211,3,16,2,3,22,10,1,22,10,749
1211,3,16,2,4,10,30,1,10,30,856
1211,3,17,4,1,10,30,1,10,30,704
1211,3,17,4,2,12,8,1,12,8,879
1211,3,17,4,3,22,12,1,22,12,764
1211,3,17,4,4,4,28,2,10,10,959
1211,3,18,1,1,12,3,1,12,3,1277
1211,3,18,1,2,18,12,1,18,12,732
1211,3,18,1,3,10,30,1,10,30,828
1211,3,18,1,4,7,13,2,10,10,910
1211,3,19,3,1,12,18,1,12,18,704
1211,3,19,3,2,16,8,1,16,8,707
1211,3,19,3,3,30,15,1,30,15,650
1211,3,19,3,4,1,13,2,10,10,1151
1211,3,20,2,1,12,18,1,12,18,707
1211,1,33,4,3,2,18,2,10,10,993
1211,3,20,2,3,18,12,1,18,12,653
1211,3,20,2,4,16,8,1,16,8,1487
1211,3,23,4,1,31,3,1,31,3,732
1211,3,23,4,2,7,11,2,10,10,1062
1211,3,23,4,3,30,15,1,30,15,1044
1211,3,23,4,4,15,30,1,15,30,836
1211,3,24,2,1,7,11,2,10,10,1372
1211,3,24,2,2,12,22,1,12,22,792
1211,3,24,2,3,17,3,1,17,3,701
1211,3,24,2,4,30,15,1,30,15,836
1211,3,25,1,1,8,16,2,10,10,701
1211,3,25,1,2,12,8,1,12,8,702
1211,3,25,1,3,22,12,1,22,12,651
1211,3,25,1,4,12,22,1,12,22,868
1211,3,26,3,1,22,10,1,22,10,695
1211,3,26,3,2,12,22,1,12,22,1024
1211,3,26,3,3,7,11,2,10,10,1378
1211,3,26,3,4,12,8,1,12,8,886
1211,3,27,4,1,30,10,1,30,10,788
1211,3,27,4,2,12,3,1,12,3,672
1211,3,27,4,4,12,18,1,12,18,760
1211,3,30,2,1,1,13,2,10,10,1071
1211,3,30,2,2,22,12,1,22,12,1004
1211,3,30,2,3,31,3,1,31,3,1422
1211,3,30,2,4,10,18,1,10,18,1127
1211,3,31,3,1,15,30,1,15,30,1026
1211,3,31,3,2,31,3,1,31,3,1021
1211,3,31,3,3,18,12,1,18,12,1010
1211,3,31,3,4,7,13,2,10,10,792
1211,3,33,4,1,12,22,1,12,22,1205
1211,3,33,4,2,16,8,1,16,8,1148
1211,3,33,4,3,22,10,1,22,10,1095
1211,3,33,4,4,1,13,2,10,10,1260
1211,3,35,1,1,10,22,1,10,22,903
1211,3,35,1,2,7,11,2,10,10,899
1211,3,35,1,3,22,10,1,22,10,2642
1211,3,35,1,4,16,8,1,16,8,917
1212,1,2,3,1,11,6,2,10,10,1554
1212,1,2,3,2,20,30,1,20,30,1198
1212,1,2,3,3,4,16,2,10,10,1183
1212,1,2,3,4,10,26,1,10,26,840
1212,1,3,2,1,31,3,1,31,3,1688
1212,1,3,2,2,22,10,1,22,10,980
1212,1,3,2,3,30,25,1,30,25,873
1212,1,3,2,4,4,12,2,10,10,983
1212,1,4,4,1,12,3,2,10,10,1023
1212,1,4,4,2,30,25,1,30,25,804
1212,1,4,4,3,6,22,2,10,10,939
1212,1,4,4,4,30,10,1,30,10,1051
1212,1,6,1,1,22,6,2,10,10,1091
1212,1,6,1,2,10,26,1,10,26,696
1212,1,6,1,3,25,30,1,25,30,782
1212,1,6,1,4,4,12,2,10,10,1177
1212,1,8,4,1,11,6,2,10,10,1186
1212,1,8,4,2,12,18,1,12,18,1114
1212,1,8,4,3,22,10,1,22,10,694
1212,1,8,4,4,4,28,2,10,10,853
1212,1,9,2,1,10,30,1,10,30,879
1212,1,9,2,2,25,30,1,25,30,990
1212,1,9,2,3,6,22,2,10,10,972
1212,1,9,2,4,11,8,2,10,10,1375
1212,1,10,3,1,7,11,2,10,10,1422
1212,1,10,3,2,31,3,1,31,3,1301
1212,1,10,3,3,30,20,1,30,20,844
1212,1,10,3,4,26,14,1,26,14,855
1212,1,12,2,1,14,6,2,10,10,1393
1212,1,12,2,2,20,30,1,20,30,726
1212,1,12,2,3,2,18,2,10,10,1307
1212,1,12,2,4,12,22,1,12,22,1083
1212,1,13,4,1,20,30,1,20,30,812
1212,1,13,4,2,8,16,2,10,10,1126
1212,1,13,4,3,14,26,1,14,26,679
1212,1,13,4,4,31,3,1,31,3,1413
1212,1,14,1,1,30,10,1,30,10,811
1212,1,14,1,2,12,8,1,12,8,1390
1212,1,14,1,3,7,11,1,7,11,1343
1212,1,14,1,4,14,26,1,14,26,1096
1212,1,16,3,1,11,8,2,10,10,1541
1212,1,16,3,2,26,10,1,26,10,835
1212,1,16,3,3,30,29,1,30,29,727
1212,1,16,3,4,8,16,1,8,16,1263
1212,1,17,4,1,4,12,2,10,10,1129
1212,1,17,4,2,30,29,1,30,29,680
1212,1,17,4,3,14,6,2,10,10,655
1212,1,17,4,4,25,30,1,25,30,651
1212,1,19,2,1,4,16,2,10,10,750
1212,1,19,2,2,10,22,1,10,22,821
1212,1,19,2,3,11,6,2,10,10,650
1212,1,19,2,4,26,10,1,26,10,649
1212,1,20,1,1,22,6,1,22,6,1311
1212,1,20,1,2,6,22,1,6,22,720
1212,1,20,1,3,26,10,1,26,10,663
1212,1,20,1,4,30,20,1,30,20,627
1212,1,21,3,1,4,16,1,4,16,1545
1212,1,21,3,2,12,3,1,12,3,777
1212,1,21,3,3,10,22,1,10,22,1045
1212,1,21,3,4,30,15,1,30,15,832
1212,1,22,4,1,26,14,1,26,14,756
1212,1,22,4,2,15,30,1,15,30,740
1212,1,22,4,3,7,11,2,10,10,694
1212,1,22,4,4,14,6,2,10,10,573
1212,1,25,1,1,4,16,2,10,10,1103
1212,1,25,1,2,12,3,2,10,10,1259
1212,1,25,1,3,10,22,1,10,22,841
1212,1,25,1,4,20,30,1,20,30,729
1212,1,26,3,1,12,22,1,12,22,667
1212,1,26,3,2,14,6,2,10,10,907
1212,1,26,3,3,22,12,1,22,12,743
1212,1,26,3,4,4,12,2,10,10,755
1212,1,27,2,1,14,6,1,14,6,1011
1212,1,27,2,2,6,22,2,10,10,1045
1212,1,27,2,3,18,12,1,18,12,737
1212,1,27,2,4,2,2,2,10,10,837
1212,1,29,1,1,2,2,2,10,10,972
1212,1,29,1,2,26,14,1,26,14,731
1212,1,29,1,3,4,16,2,10,10,949
1212,1,29,1,4,16,8,1,16,8,1388
1212,1,31,4,1,11,8,2,10,10,1419
1212,1,31,4,2,10,18,1,10,18,1100
1212,1,31,4,3,18,12,1,18,12,641
1212,1,31,4,4,2,18,2,10,10,930
1212,1,32,3,1,17,3,2,10,10,1187
1212,1,32,3,2,6,22,2,10,10,1142
1212,1,32,3,3,10,18,1,10,18,848
1212,1,32,3,4,18,10,1,18,10,881
1212,1,34,2,1,30,10,1,30,10,701
1212,1,34,2,2,12,18,1,12,18,805
1212,1,34,2,3,17,3,2,10,10,1233
1212,1,34,2,4,7,11,2,10,10,701
1212,1,36,1,1,18,18,1,18,18,985
1212,1,36,1,2,31,3,2,10,10,1239
1212,1,36,1,3,2,18,2,10,10,844
1212,1,36,1,4,10,18,1,10,18,637
1212,2,1,4,1,4,16,2,10,10,887
1212,2,1,4,2,22,6,1,22,6,1376
1212,2,1,4,3,10,22,1,10,22,991
1212,2,1,4,4,30,15,1,30,15,576
1212,2,5,3,1,4,12,2,10,10,852
1212,2,5,3,2,18,12,1,18,12,787
1212,2,5,3,3,30,25,1,30,25,799
1212,2,5,3,4,22,6,1,22,6,968
1212,2,6,1,1,30,29,1,30,29,757
1212,2,6,1,2,18,10,1,18,10,646
1212,2,6,1,3,4,12,2,10,10,617
1212,2,6,1,4,14,6,2,10,10,1277
1212,2,7,2,1,14,26,1,14,26,786
1212,2,7,2,2,4,12,2,10,10,652
1212,2,7,2,3,12,8,2,10,10,1251
1212,2,7,2,4,18,18,1,18,18,985
1212,2,8,4,1,4,12,2,10,10,839
1212,2,8,4,2,30,20,1,30,20,704
1212,2,8,4,3,12,8,1,12,8,662
1212,2,8,4,4,18,10,1,18,10,618
1212,2,11,3,1,6,22,2,10,10,1007
1212,2,11,3,2,15,30,1,15,30,779
1212,2,11,3,3,16,8,2,10,10,1430
1212,2,11,3,4,2,2,2,10,10,851
1212,2,12,1,1,29,30,1,29,30,625
1212,2,12,1,2,10,30,1,10,30,776
1212,2,12,1,3,1,13,2,10,10,691
1212,2,12,1,4,14,6,2,10,10,1191
1212,2,13,2,1,30,15,1,30,15,847
1212,2,13,2,2,30,29,1,30,29,583
1212,2,13,2,3,22,6,1,22,6,925
1212,2,13,2,4,1,13,2,10,10,805
1212,2,14,4,1,4,16,2,10,10,940
1212,2,14,4,2,29,30,1,29,30,676
1212,2,14,4,3,11,6,2,10,10,975
1212,2,14,4,4,10,26,1,10,26,798
1212,2,17,3,1,29,30,1,29,30,673
1212,2,17,3,2,14,26,1,14,26,665
1212,2,17,3,3,2,18,2,10,10,649
1212,2,17,3,4,14,6,2,10,10,945
1212,2,18,1,1,12,18,1,12,18,992
1212,2,18,1,2,22,12,1,22,12,680
1212,2,18,1,3,11,6,2,10,10,677
1212,2,18,1,4,6,22,2,10,10,597
1212,2,20,2,1,15,30,1,15,30,756
1212,2,20,2,2,16,8,2,10,10,1541
1212,2,20,2,3,8,16,2,10,10,1156
1212,2,20,2,4,22,12,1,22,12,1068
1212,2,21,3,1,12,8,2,10,10,959
1212,2,21,3,2,1,13,2,10,10,648
1212,2,21,3,3,22,10,1,22,10,1088
1212,2,21,3,4,10,30,1,10,30,680
1212,2,23,4,1,16,8,1,16,8,946
1212,2,23,4,2,22,12,1,22,12,644
1212,2,23,4,3,18,18,1,18,18,749
1212,2,23,4,4,1,13,2,10,10,753
1212,2,24,1,1,12,22,1,12,22,911
1212,2,24,1,2,11,8,2,10,10,829
1212,2,24,1,3,22,10,1,22,10,612
1212,2,24,1,4,7,13,2,10,10,682
1212,2,25,3,1,22,6,1,22,6,834
1212,2,25,3,2,4,28,1,4,28,1191
1212,2,25,3,3,12,18,1,12,18,1237
1212,2,25,3,4,30,10,1,30,10,658
1212,2,26,2,1,30,20,1,30,20,640
1212,2,26,2,2,4,28,1,4,28,611
1212,2,26,2,3,22,6,1,22,6,607
1212,2,26,2,4,29,30,1,29,30,817
1212,2,27,2,1,4,16,2,10,10,763
1212,2,27,2,2,12,3,2,10,10,1229
1212,2,27,2,3,10,26,1,10,26,545
1212,2,27,2,4,26,14,1,26,14,871
1212,2,29,4,1,6,22,1,6,22,689
1212,2,29,4,2,26,10,1,26,10,664
1212,2,29,4,3,22,6,1,22,6,1123
1212,2,29,4,4,10,30,1,10,30,709
1212,2,30,1,1,15,30,1,15,30,662
1212,2,30,1,2,17,3,2,10,10,1348
1212,2,30,1,3,4,28,1,4,28,1288
1212,2,30,1,4,18,12,1,18,12,662
1212,2,32,3,1,18,18,1,18,18,679
1212,2,32,3,2,7,13,2,10,10,803
1212,2,32,3,3,25,30,1,25,30,1062
1212,2,32,3,4,11,6,2,10,10,1067
1212,2,33,2,1,7,13,2,10,10,774
1212,2,33,2,2,10,18,1,10,18,755
1212,2,33,2,3,18,10,1,18,10,990
1212,2,33,2,4,11,6,2,10,10,1002
1212,2,34,1,1,30,15,1,30,15,634
1212,2,34,1,2,8,16,2,10,10,954
1212,2,34,1,3,11,6,2,10,10,755
1212,2,34,1,4,30,25,1,30,25,565
1212,2,35,4,1,2,2,2,10,10,692
1212,2,35,4,2,17,3,2,10,10,1448
1212,2,35,4,3,12,22,1,12,22,647
1212,2,35,4,4,7,13,2,10,10,625
1212,3,1,3,1,4,28,1,4,28,1383
1212,3,1,3,2,12,3,2,10,10,1017
1212,3,1,3,3,18,10,1,18,10,773
1212,3,1,3,4,15,30,1,15,30,660
1212,3,2,4,1,30,10,1,30,10,804
1212,3,2,4,2,10,22,1,10,22,676
1212,3,2,4,3,4,28,1,4,28,1276
1212,3,2,4,4,12,3,2,10,10,956
1212,3,4,2,1,30,15,1,30,15,637
1212,3,4,2,2,1,13,2,10,10,647
1212,3,4,2,3,31,3,1,31,3,792
1212,3,4,2,4,10,18,1,10,18,998
1212,3,5,1,1,17,3,2,10,10,881
1212,3,5,1,2,8,16,2,10,10,1013
1212,3,5,1,3,10,18,1,10,18,949
1212,3,5,1,4,18,10,1,18,10,612
1212,3,6,3,1,10,22,1,10,22,650
1212,3,6,3,2,8,16,2,10,10,1004
1212,3,6,3,3,30,10,1,30,10,597
1212,3,6,3,4,12,8,2,10,10,1059
1212,3,8,4,1,18,10,1,18,10,938
1212,3,8,4,2,10,18,1,10,18,653
1212,3,8,4,3,2,18,2,10,10,939
1212,3,8,4,4,17,3,2,10,10,1264
1212,3,9,2,1,11,8,2,10,10,1175
1212,3,9,2,2,2,18,2,10,10,575
1212,3,9,2,3,30,10,1,30,10,603
1212,3,9,2,4,15,30,1,15,30,602
1212,3,11,3,1,11,8,2,10,10,1031
1212,3,11,3,2,7,13,2,10,10,771
1212,3,11,3,3,22,10,1,22,10,662
1212,3,11,3,4,10,30,1,10,30,720
1212,3,13,1,1,10,22,1,10,22,843
1212,3,13,1,2,11,8,2,10,10,636
1212,3,13,1,3,18,12,1,18,12,778
1212,3,13,1,4,7,13,2,10,10,1025
1212,3,14,2,1,18,10,1,18,10,729
1212,3,14,2,2,12,18,1,12,18,591
1212,3,14,2,3,17,3,2,10,10,988
1212,3,14,2,4,4,28,1,4,28,887
1212,3,15,4,1,11,8,2,10,10,893
1212,3,15,4,2,22,12,1,22,12,700
1212,3,15,4,3,8,16,1,8,16,667
1212,3,15,4,4,10,30,1,10,30,970
1212,3,18,3,1,12,18,1,12,18,985
1212,3,18,3,2,2,18,2,10,10,914
1212,3,18,3,3,18,12,1,18,12,700
1212,3,18,3,4,16,8,1,16,8,1457
1212,3,19,1,1,10,30,1,10,30,703
1212,3,19,1,2,12,8,2,10,10,1086
1212,3,19,1,3,22,12,1,22,12,729
1212,3,19,1,4,4,28,2,10,10,1754
1212,3,20,2,1,12,3,2,10,10,927
1212,3,20,2,2,18,12,1,18,12,930
1212,3,20,2,3,10,30,1,10,30,754
1212,3,20,2,4,7,13,2,10,10,1151
1212,3,21,4,1,12,18,1,12,18,704
1212,3,21,4,2,16,8,1,16,8,1200
1212,3,21,4,3,30,15,1,30,15,800
1212,3,21,4,4,1,13,2,10,10,883
1212,3,23,3,1,7,11,2,10,10,881
1212,3,23,3,2,12,22,1,12,22,833
1212,3,23,3,3,17,3,2,10,10,1223
1212,3,23,3,4,30,15,1,30,15,1024
1212,3,25,1,1,31,3,1,31,3,1671
1212,3,25,1,2,7,11,2,10,10,866
1212,3,25,1,3,30,15,1,30,15,790
1212,3,25,1,4,15,30,1,15,30,1103
1212,3,26,2,1,8,16,1,8,16,1488
1212,3,26,2,2,12,8,2,10,10,1994
1212,3,26,2,3,22,12,1,22,12,767
1212,3,26,2,4,12,22,1,12,22,725
1212,3,29,4,1,22,10,1,22,10,736
1212,3,29,4,2,12,22,1,12,22,704
1212,3,29,4,3,7,11,2,10,10,788
1212,3,29,4,4,12,8,2,10,10,912
1212,3,30,1,1,30,10,1,30,10,731
1212,3,30,1,2,12,3,2,10,10,1140
1212,3,30,1,3,2,18,2,10,10,1128
1212,3,30,1,4,12,18,1,12,18,879
1212,3,32,2,1,10,22,1,10,22,730
1212,3,32,2,2,7,11,2,10,10,850
1212,3,32,2,3,22,10,1,22,10,851
1212,3,32,2,4,16,8,1,16,8,1263
1212,3,33,3,1,1,13,2,10,10,668
1212,3,33,3,2,22,12,1,22,12,818
1212,3,33,3,3,31,3,1,31,3,878
1212,3,33,3,4,10,18,1,10,18,785
1212,3,34,1,1,12,22,1,12,22,1047
1212,3,34,1,2,16,8,1,16,8,1286
1212,3,34,1,3,22,10,1,22,10,1448
1212,3,34,1,4,1,13,2,10,10,800
1212,3,35,4,1,15,30,1,15,30,837
1212,3,35,4,2,31,3,1,31,3,1259
1212,3,35,4,3,18,12,1,18,12,913
1212,3,35,4,4,7,13,2,10,10,822
1215,1,2,3,1,12,3,1,12,3,1067
1215,1,2,3,2,30,25,2,10,10,1879
1215,1,2,3,3,6,22,2,10,10,2319
1215,1,2,3,4,30,10,2,10,10,1345
1215,1,3,2,1,11,6,2,10,10,1105
1215,1,3,2,2,20,30,1,20,30,765
1215,1,25,1,1,4,16,2,10,10,1121
1215,1,3,2,4,10,26,1,10,26,969
1215,1,4,4,1,22,6,1,22,6,833
1215,1,4,4,2,10,26,2,10,10,1310
1215,1,4,4,3,25,30,1,25,30,813
1215,1,4,4,4,4,12,2,10,10,1387
1215,1,6,1,1,31,3,1,31,3,812
1215,1,6,1,2,22,10,1,22,10,1138
1215,1,6,1,3,30,25,1,30,25,921
1215,1,6,1,4,4,12,2,10,10,1053
1215,1,8,4,1,30,10,1,30,10,805
1215,1,8,4,2,12,8,2,10,10,1141
1215,1,8,4,3,7,11,2,10,10,1122
1215,1,8,4,4,14,26,1,14,26,1465
1215,1,9,2,1,7,11,2,10,10,1291
1215,1,9,2,2,31,3,1,31,3,802
1215,1,9,2,3,30,20,1,30,20,1616
1215,1,9,2,4,26,14,1,26,14,899
1215,1,10,3,1,11,6,1,11,6,1177
1215,1,10,3,2,12,18,1,12,18,1425
1215,1,10,3,3,22,10,1,22,10,1184
1215,1,10,3,4,4,28,2,10,10,2177
1215,1,12,2,1,11,8,2,10,10,875
1215,1,12,2,2,26,10,1,26,10,881
1215,1,12,2,3,30,29,1,30,29,757
1215,1,12,2,4,8,16,2,10,10,1238
1215,1,13,4,1,22,6,1,22,6,855
1215,1,13,4,2,6,22,2,10,10,970
1215,1,13,4,3,26,10,1,26,10,619
1215,1,13,4,4,30,20,1,30,20,602
1215,1,14,1,1,10,30,1,10,30,1583
1215,1,14,1,2,25,30,1,25,30,841
1215,1,14,1,3,6,22,2,10,10,2003
1215,1,14,1,4,11,8,1,11,8,1427
1215,1,16,3,1,20,30,1,20,30,681
1215,1,16,3,2,8,16,2,10,10,1119
1215,1,16,3,3,14,26,1,14,26,852
1215,1,16,3,4,31,3,1,31,3,739
1215,1,17,4,2,12,3,2,10,10,766
1215,1,17,4,3,10,22,1,10,22,1499
1215,1,17,4,4,20,30,1,20,30,952
1215,1,3,2,3,4,16,2,10,10,1226
1215,1,19,2,2,12,3,1,12,3,713
1215,1,19,2,3,10,22,1,10,22,566
1215,1,19,2,4,30,15,1,30,15,772
1215,1,20,1,1,14,6,1,14,6,563
1215,1,20,1,2,20,30,1,20,30,581
1215,1,20,1,3,2,18,1,2,18,818
1215,1,20,1,4,12,22,1,12,22,662
1215,1,21,3,1,4,12,2,10,10,877
1215,1,21,3,2,30,29,1,30,29,844
1215,1,21,3,3,14,6,2,10,10,1032
1215,1,21,3,4,25,30,1,25,30,835
1215,1,22,4,1,2,2,2,10,10,774
1215,1,22,4,2,26,14,1,26,14,623
1215,1,22,4,4,16,8,1,16,8,1295
1215,2,5,3,1,4,16,2,10,10,748
1215,1,25,1,2,10,22,1,10,22,1230
1215,1,25,1,3,11,6,2,10,10,946
1215,1,25,1,4,26,10,1,26,10,658
1215,1,26,3,1,26,14,1,26,14,708
1215,1,26,3,2,15,30,1,15,30,1365
1215,1,26,3,3,7,11,2,10,10,825
1215,1,26,3,4,14,6,1,14,6,1150
1215,1,27,2,1,12,22,1,12,22,708
1215,1,27,2,2,14,6,1,14,6,1374
1215,1,27,2,3,22,12,1,22,12,729
1215,1,27,2,4,4,12,2,10,10,2012
1215,1,29,1,1,14,6,2,10,10,379
1215,1,29,1,2,6,22,2,10,10,354
1215,1,29,1,3,18,12,1,18,12,684
1215,1,29,1,4,2,2,2,10,10,740
1215,1,31,4,1,18,18,2,10,10,979
1215,1,31,4,2,31,3,1,31,3,627
1215,1,31,4,3,2,18,2,10,10,824
1215,1,31,4,4,10,18,1,10,18,1386
1215,1,32,3,1,11,8,2,10,10,684
1215,1,32,3,2,10,18,1,10,18,1366
1215,1,32,3,3,18,12,1,18,12,703
1215,1,32,3,4,2,18,2,10,10,769
1215,1,34,2,1,17,3,1,17,3,630
1215,1,34,2,2,6,22,2,10,10,862
1215,1,34,2,3,10,18,2,10,10,1105
1215,1,34,2,4,18,10,1,18,10,1374
1215,1,36,1,1,30,10,1,30,10,1468
1215,1,36,1,2,12,18,1,12,18,761
1215,1,36,1,3,17,3,1,17,3,966
1215,1,36,1,4,7,11,2,10,10,623
1215,2,1,4,1,30,29,2,10,10,584
1215,2,1,4,2,18,10,1,18,10,624
1215,2,1,4,3,4,12,2,10,10,880
1215,2,1,4,4,14,6,1,14,6,656
1215,2,5,3,2,22,6,1,22,6,651
1215,2,5,3,3,10,22,1,10,22,814
1215,2,5,3,4,30,15,1,30,15,648
1215,2,6,1,1,14,26,1,14,26,892
1215,2,6,1,2,4,12,2,10,10,1006
1215,2,6,1,3,12,8,2,10,10,802
1215,2,6,1,4,18,18,1,18,18,661
1215,2,7,2,1,4,12,2,10,10,692
1215,2,7,2,2,18,12,1,18,12,1309
1215,2,7,2,3,30,25,1,30,25,517
1215,2,7,2,4,22,6,1,22,6,603
1215,2,8,4,1,29,30,1,29,30,650
1215,2,8,4,2,10,30,1,10,30,1081
1215,2,8,4,3,1,13,2,10,10,886
1215,2,8,4,4,14,6,1,14,6,1243
1215,2,11,3,1,4,12,2,10,10,874
1215,2,11,3,2,30,20,1,30,20,662
1215,2,11,3,3,12,8,1,12,8,889
1215,2,11,3,4,18,10,1,18,10,750
1215,2,12,1,1,30,15,1,30,15,971
1215,2,12,1,2,30,29,1,30,29,771
1215,2,12,1,3,22,6,1,22,6,886
1215,2,12,1,4,1,13,2,10,10,1211
1215,2,13,2,1,6,22,2,10,10,698
1215,2,13,2,2,15,30,1,15,30,794
1215,2,13,2,3,16,8,1,16,8,769
1215,2,13,2,4,2,2,2,10,10,993
1215,2,14,4,1,12,18,1,12,18,1016
1215,2,14,4,2,22,12,1,22,12,1751
1215,2,14,4,3,11,6,1,11,6,801
1215,2,14,4,4,6,22,2,10,10,703
1215,2,17,3,2,29,30,2,10,10,396
1215,2,17,3,3,11,6,1,11,6,620
1215,2,17,3,4,10,26,1,10,26,1013
1215,2,18,1,1,15,30,1,15,30,1155
1215,2,18,1,2,16,8,1,16,8,603
1215,2,18,1,3,8,16,1,8,16,632
1215,2,18,1,4,22,12,1,22,12,520
1215,2,20,2,1,29,30,1,29,30,631
1215,2,20,2,2,14,26,1,14,26,808
1215,2,20,2,3,2,18,2,10,10,814
1215,2,20,2,4,14,6,1,14,6,709
1215,2,21,3,1,16,8,1,16,8,609
1215,2,21,3,2,22,12,1,22,12,986
1215,2,21,3,3,18,18,1,18,18,563
1215,2,21,3,4,1,13,2,10,10,778
1215,2,23,4,1,12,22,1,12,22,996
1215,2,23,4,2,11,8,1,11,8,576
1215,2,23,4,3,22,10,1,22,10,656
1215,2,23,4,4,7,13,2,10,10,972
1215,2,24,1,1,30,20,1,30,20,619
1215,2,24,1,2,4,28,2,10,10,969
1215,2,24,1,3,22,6,1,22,6,505
1215,2,24,1,4,29,30,1,29,30,1318
1215,2,25,3,1,6,22,2,10,10,1054
1215,2,25,3,2,26,10,1,26,10,660
1215,2,25,3,3,22,6,1,22,6,651
1215,2,25,3,4,10,30,1,10,30,1919
1215,2,26,2,1,12,8,1,12,8,597
1215,2,26,2,2,1,13,2,10,10,1127
1215,2,26,2,3,22,10,1,22,10,571
1215,2,26,2,4,10,30,1,10,30,1197
1215,2,27,2,1,22,6,1,22,6,663
1215,2,27,2,2,4,28,2,10,10,617
1215,2,27,2,3,12,18,1,12,18,557
1215,2,27,2,4,30,10,1,30,10,627
1215,2,29,4,1,15,30,1,15,30,573
1215,2,29,4,2,17,3,1,17,3,589
1215,2,29,4,3,4,28,2,10,10,600
1215,2,29,4,4,18,12,2,10,10,664
1215,1,22,4,3,4,16,2,10,10,929
1215,2,30,1,2,12,3,1,12,3,558
1215,2,30,1,3,10,26,2,10,10,764
1215,2,30,1,4,26,14,1,26,14,482
1215,2,32,3,1,2,2,2,10,10,834
1215,2,32,3,2,17,3,1,17,3,1053
1215,2,32,3,3,12,22,1,12,22,1376
1215,2,32,3,4,7,13,2,10,10,1094
1215,2,33,2,1,18,18,1,18,18,874
1215,2,33,2,2,7,13,2,10,10,1222
1215,2,33,2,3,25,30,1,25,30,993
1215,2,33,2,4,11,6,1,11,6,1198
1215,2,34,1,1,7,13,2,10,10,1077
1215,2,34,1,2,10,18,1,10,18,1014
1215,2,34,1,3,18,10,1,18,10,911
1215,2,34,1,4,11,6,1,11,6,1177
1215,2,35,4,1,30,15,1,30,15,696
1215,2,35,4,2,8,16,2,10,10,1003
1215,2,35,4,3,11,6,1,11,6,1443
1215,2,35,4,4,30,25,1,30,25,1598
1215,3,1,3,1,30,10,2,10,10,457
1215,3,1,3,2,10,22,1,10,22,531
1215,3,1,3,3,4,28,2,10,10,1113
1215,3,1,3,4,12,3,1,12,3,1518
1215,3,2,4,1,17,3,1,17,3,878
1215,3,2,4,2,8,16,1,8,16,662
1215,3,2,4,3,10,18,1,10,18,982
1215,3,2,4,4,18,10,1,18,10,644
1215,3,4,2,1,4,28,2,10,10,886
1215,3,4,2,2,12,3,1,12,3,680
1215,3,4,2,3,18,10,1,18,10,753
1215,3,4,2,4,15,30,1,15,30,598
1215,3,5,1,1,30,15,1,30,15,619
1215,3,5,1,2,1,13,2,10,10,734
1215,3,5,1,3,31,3,1,31,3,775
1215,3,5,1,4,10,18,1,10,18,615
1215,3,6,3,1,18,10,1,18,10,580
1215,3,6,3,2,10,18,1,10,18,1278
1215,3,6,3,3,2,18,1,2,18,655
1215,3,6,3,4,17,3,1,17,3,686
1215,3,8,4,1,10,22,1,10,22,709
1215,3,8,4,2,11,8,1,11,8,694
1215,3,8,4,3,18,12,1,18,12,573
1215,3,8,4,4,7,13,2,10,10,915
1215,3,9,2,1,10,22,1,10,22,1425
1215,3,9,2,2,8,16,2,10,10,914
1215,3,9,2,3,30,10,1,30,10,853
1215,3,9,2,4,12,8,1,12,8,700
1215,3,11,3,1,11,8,1,11,8,976
1215,3,11,3,2,22,12,1,22,12,860
1215,3,11,3,3,8,16,2,10,10,976
1215,3,11,3,4,10,30,1,10,30,1050
1215,3,13,1,1,11,8,1,11,8,796
1215,3,13,1,2,2,18,1,2,18,549
1215,3,13,1,3,30,10,2,10,10,482
1215,3,13,1,4,15,30,1,15,30,960
1215,3,14,2,1,11,8,2,10,10,559
1215,3,14,2,2,7,13,2,10,10,702
1215,3,14,2,3,22,10,1,22,10,683
1215,3,14,2,4,10,30,1,10,30,526
1215,3,15,4,1,10,30,1,10,30,691
1215,3,15,4,2,12,8,1,12,8,923
1215,3,15,4,3,22,12,1,22,12,562
1215,3,15,4,4,4,28,2,10,10,786
1215,3,18,3,1,12,18,1,12,18,650
1215,3,18,3,2,16,8,1,16,8,962
1215,3,18,3,3,30,15,1,30,15,1061
1215,3,18,3,4,1,13,2,10,10,729
1215,3,19,1,1,18,10,1,18,10,583
1215,3,19,1,2,12,18,1,12,18,526
1215,3,19,1,3,17,3,1,17,3,664
1215,3,19,1,4,4,28,2,10,10,712
1215,3,20,2,1,12,18,2,10,10,925
1215,3,20,2,2,2,18,1,2,18,512
1215,3,20,2,3,18,12,1,18,12,897
1215,3,20,2,4,16,8,1,16,8,1037
1215,3,21,4,1,31,3,1,31,3,527
1215,3,21,4,2,7,11,2,10,10,895
1215,3,21,4,3,30,15,1,30,15,719
1215,3,21,4,4,15,30,1,15,30,795
1215,3,23,3,1,22,10,1,22,10,601
1215,3,23,3,2,12,22,1,12,22,1105
1215,3,23,3,3,7,11,2,10,10,592
1215,3,23,3,4,12,8,1,12,8,601
1215,3,25,1,1,12,3,1,12,3,984
1215,3,25,1,2,18,12,1,18,12,571
1215,3,25,1,3,10,30,1,10,30,590
1215,3,25,1,4,7,13,1,7,13,494
1215,3,26,2,1,7,11,2,10,10,624
1215,3,26,2,2,12,22,2,10,10,433
1215,3,26,2,3,17,3,1,17,3,662
1215,3,26,2,4,30,15,1,30,15,669
1215,3,29,4,1,30,10,1,30,10,720
1215,3,29,4,2,12,3,1,12,3,688
1215,3,29,4,3,2,18,2,10,10,844
1215,3,29,4,4,12,18,1,12,18,560
1215,3,30,1,1,8,16,2,10,10,788
1215,3,30,1,2,12,8,1,12,8,494
1215,3,30,1,3,22,12,1,22,12,642
1215,3,30,1,4,12,22,1,12,22,441
1215,3,32,2,1,1,13,2,10,10,621
1215,3,32,2,2,22,12,1,22,12,556
1215,3,32,2,3,31,3,1,31,3,549
1215,3,32,2,4,10,18,1,10,18,827
1215,3,33,3,1,15,30,1,15,30,736
1215,3,33,3,2,31,3,1,31,3,663
1215,3,33,3,3,18,12,1,18,12,618
1215,3,33,3,4,7,13,2,10,10,781
1215,3,34,1,1,10,22,1,10,22,586
1215,3,34,1,2,7,11,2,10,10,594
1215,3,34,1,3,22,10,1,22,10,573
1215,3,34,1,4,16,8,1,16,8,1237
1215,3,35,4,1,12,22,2,10,10,506
1215,3,35,4,2,16,8,1,16,8,424
1215,3,35,4,3,22,10,2,10,10,430
1215,3,35,4,4,1,13,2,10,10,740
1216,1,1,3,1,11,6,1,11,6,1663
1216,1,1,3,2,20,30,2,10,10,2599
1216,1,1,3,3,4,16,2,10,10,2470
1216,1,1,3,4,10,26,2,10,10,2075
1216,1,2,1,1,22,6,2,10,10,1314
1216,1,2,1,2,10,26,1,10,26,2371
1216,1,2,1,3,25,30,1,25,30,2807
1216,1,2,1,4,4,12,2,10,10,2416
1216,1,3,4,1,12,3,2,10,10,1987
1216,1,3,4,2,30,25,2,10,10,2200
1216,1,3,4,3,6,22,2,10,10,2192
1216,1,3,4,4,30,10,2,10,10,1994
1216,1,5,2,1,31,3,2,10,10,2162
1216,1,5,2,2,22,10,2,10,10,2392
1216,1,5,2,3,30,25,2,10,10,1941
1216,1,5,2,4,4,12,2,10,10,2494
1216,1,8,4,1,11,6,1,11,6,1712
1216,1,8,4,2,12,18,2,10,10,1879
1216,1,8,4,3,22,10,1,22,10,1698
1216,1,8,4,4,4,28,2,10,10,1803
1216,1,9,3,1,7,11,2,10,10,1750
1216,1,9,3,2,31,3,1,31,3,1685
1216,1,9,3,3,30,20,1,30,20,1471
1216,1,9,3,4,26,14,1,26,14,1770
1216,1,11,1,1,30,10,2,10,10,1404
1216,1,11,1,2,12,8,2,10,10,1582
1216,1,11,1,3,7,11,1,7,11,1509
1216,1,11,1,4,14,26,1,14,26,1835
1216,1,13,2,1,10,30,1,10,30,1816
1216,1,13,2,2,25,30,1,25,30,1926
1216,1,13,2,3,6,22,2,10,10,1812
1216,1,13,2,4,11,8,2,10,10,1824
1216,1,14,4,1,20,30,2,10,10,1207
1216,1,14,4,2,8,16,2,10,10,1746
1216,1,14,4,3,14,26,2,10,10,1575
1216,1,14,4,4,31,3,2,10,10,1923
1216,1,15,1,1,22,6,2,10,10,1573
1216,1,15,1,2,6,22,1,6,22,1122
1216,1,15,1,3,26,10,2,10,10,2417
1216,1,15,1,4,30,20,1,30,20,2262
1216,1,16,3,1,11,8,1,11,8,1426
1216,1,16,3,2,26,10,1,26,10,1262
1216,1,16,3,3,30,29,1,30,29,1554
1216,1,16,3,4,8,16,2,10,10,2155
1216,1,18,2,1,14,6,1,14,6,1313
1216,1,18,2,2,20,30,2,10,10,1815
1216,1,18,2,3,2,18,2,10,10,1762
1216,1,18,2,4,12,22,2,10,10,1753
1216,1,19,4,1,4,12,2,10,10,1536
1216,1,19,4,2,30,29,1,30,29,1642
1216,1,19,4,3,14,6,2,10,10,1342
1216,1,19,4,4,25,30,2,10,10,2244
1216,1,21,1,1,4,16,2,10,10,1490
1216,1,21,1,2,12,3,2,10,10,1310
1216,1,21,1,3,10,22,1,10,22,1332
1216,1,21,1,4,20,30,1,20,30,1185
1216,1,22,2,1,4,16,2,10,10,1520
1216,1,22,2,2,10,22,1,10,22,1769
1216,1,22,2,3,11,6,2,10,10,1983
1216,1,22,2,4,26,10,1,26,10,2329
1216,1,23,3,1,4,16,2,10,10,1188
1216,1,23,3,2,12,3,1,12,3,1910
1216,1,23,3,3,10,22,2,10,10,2280
1216,1,23,3,4,30,15,1,30,15,1812
1216,1,26,3,1,12,22,2,10,10,1588
1216,1,26,3,2,14,6,1,14,6,1683
1216,1,26,3,3,22,12,1,22,12,1365
1216,1,26,3,4,4,12,2,10,10,1560
1216,1,27,1,1,2,2,2,10,10,1273
1216,1,27,1,2,26,14,1,26,14,1487
1216,1,27,1,3,4,16,2,10,10,1820
1216,1,27,1,4,16,8,1,16,8,1811
1216,1,28,2,1,14,6,2,10,10,1343
1216,1,28,2,2,6,22,2,10,10,1482
1216,1,28,2,3,18,12,2,10,10,1994
1216,1,28,2,4,2,2,2,10,10,1691
1216,1,29,4,1,26,14,1,26,14,1065
1216,1,29,4,2,15,30,2,10,10,1463
1216,1,29,4,3,7,11,2,10,10,933
1216,1,29,4,4,14,6,2,10,10,1329
1216,1,32,3,1,17,3,1,17,3,1139
1216,1,32,3,2,6,22,2,10,10,1968
1216,1,32,3,3,10,18,2,10,10,1584
1216,1,32,3,4,18,10,1,18,10,1432
1216,1,33,1,1,18,18,1,18,18,1037
1216,1,33,1,2,31,3,2,10,10,1285
1216,1,33,1,3,2,18,1,2,18,1542
1216,1,33,1,4,10,18,1,10,18,1236
1216,1,35,4,1,11,8,1,11,8,1293
1216,1,35,4,2,10,18,2,10,10,1744
1216,1,35,4,3,18,12,1,18,12,1391
1216,1,35,4,4,2,18,2,10,10,1212
1216,1,36,2,1,30,10,2,10,10,1286
1216,1,36,2,2,12,18,1,12,18,1789
1216,1,36,2,3,17,3,2,10,10,1301
1216,1,36,2,4,7,11,1,7,11,1695
1216,2,2,3,1,4,12,2,10,10,964
1216,2,2,3,2,18,12,1,18,12,1262
1216,2,2,3,3,30,25,1,30,25,960
1216,2,2,3,4,22,6,2,10,10,1297
1216,2,3,1,1,30,29,1,30,29,995
1216,2,3,1,2,18,10,2,10,10,1507
1216,2,3,1,3,4,12,2,10,10,920
1216,2,3,1,4,14,6,2,10,10,1206
1216,2,4,4,1,4,16,2,10,10,1005
1216,2,4,4,2,22,6,1,22,6,1122
1216,2,4,4,3,10,22,2,10,10,1184
1216,2,4,4,4,30,15,1,30,15,947
1216,2,6,2,1,14,26,1,14,26,1569
1216,2,6,2,2,4,12,2,10,10,1626
1216,2,6,2,3,12,8,2,10,10,1379
1216,2,6,2,4,18,18,1,18,18,860
